File: Battery Data/RAW/A123_16.csv
,Test_Time(s),Current(A),Voltage(V),Charge_Capacity(Ah),Discharge_Capacity(Ah),Charge_Energy(Wh),Discharge_Energy(Wh),dV/dt(V/s),Temperature (C)_1
1,8.01892,-1.09978,2.51926,0.0,0.001530175,0.0,0.003883534,-0.003877926,50.7337
67,335.994,1.09942,3.37978,0.0565557,0.008493679,0.181113,0.0204658,0.000553989,50.6575
109,546.134,1.0996,3.48042,0.120737,0.008493679,0.402618,0.0204658,6.15597e-05,50.837
151,756.328,1.09942,3.50628,0.184937,0.008493679,0.626825,0.0204658,0.000123119,50.8668
193,966.537,1.0996,3.53336,0.249141,0.008493679,0.852881,0.0204658,6.15597e-05,51.1299
235,1176.75,1.0996,3.55121,0.313347,0.008493679,1.08036,0.0204658,0.0,51.2001
277,1386.97,1.0996,3.56291,0.377552,0.008493679,1.30881,0.0204658,0.0,51.4296
319,1597.18,1.0996,3.56598,0.441755,0.008493679,1.53765,0.0204658,6.15597e-05,51.7488
361,1807.4,1.09942,3.56999,0.505962,0.008493679,1.76673,0.0204658,-0.000123119,51.8886
403,2017.59,1.09923,3.57491,0.570159,0.008493679,1.99609,0.0204658,-6.15597e-05,51.7691
445,2227.78,1.0996,3.58045,0.634358,0.008493679,2.22577,0.0204658,0.0,52.0688
487,2438,1.0996,3.58753,0.698566,0.008493679,2.45586,0.0204658,-6.1512e-05,52.1449
529,2648.24,1.0996,3.59676,0.762781,0.008493679,2.68656,0.0204658,0.0,52.3876
571,2856.87,1.09779,3.60107,0.826572,0.008493679,2.91617,0.0204658,0.0,51.9751
613,3067.05,1.07108,3.60138,0.889913,0.008493679,3.14428,0.0204658,6.15597e-05,51.9485
655,3277.26,1.02705,3.60138,0.951312,0.008493679,3.36539,0.0204658,0.0,51.7991
697,3487.493,0.911563,3.60107,1.00858,0.008493679,3.57162,0.0204658,-6.15597e-05,51.9824
739,3697.66,0.552459,3.60107,1.05277,0.008493679,3.73076,0.0204658,0.0,52.1051
781,3907.85,0.207793,3.60138,1.07349,0.008493679,3.80536,0.0204658,6.15597e-05,51.7921
823,4118.05,0.098618,3.60107,1.08179,0.008493679,3.83528,0.0204658,6.1512e-05,51.5725
865,4328.2,0.059279,3.60076,1.08626,0.008493679,3.85134,0.0204658,-0.000123072,51.323
931,4519.08,-0.481361,3.4161,1.08686,0.01065555,3.8535,0.0278909,-0.001107979,51.3898
973,4561.27,-0.000451223,3.48227,1.08792,0.0154462,3.85732,0.04378,6.15597e-05,51.5097
1015,4603.5,0.480819,3.52782,1.088,0.0218643,3.85759,0.0649353,0.0610617,51.493
1057,4645.72,-0.481361,3.30807,1.08899,0.0265135,3.8611,0.0803723,-0.000184679,51.6694
1099,4687.95,-0.000451223,3.40164,1.09007,0.0309485,3.86485,0.0946663,6.15597e-05,51.6959
1141,4730.16,-3.84935,2.55988,1.09007,0.0392208,3.86485,0.119379,-0.002831507,51.6193
1183,4772.38,-0.962451,3.15019,1.0922,0.0618054,3.87241,0.182567,-0.000184679,51.6925
1225,4814.61,-0.000270769,3.35732,1.09648,0.0688946,3.88844,0.204882,-6.15597e-05,51.5992
1268,4855.94,-0.000451223,3.3567,1.09648,0.0688991,3.88844,0.204897,0.0,51.6557
1310,4898.18,-0.96227,3.15049,1.09648,0.0743207,3.88844,0.22237,-0.000184679,51.6224
1352,4940.39,-0.481361,3.25175,1.09755,0.0775247,3.89212,0.232635,0.0,51.5591
1394,4982.59,-0.481361,3.24929,1.09861,0.0837052,3.89579,0.252397,0.0,51.4992
1436,5024.84,-0.96227,3.14434,1.09861,0.0905433,3.89579,0.274363,-0.000184631,51.5591
1478,5067.07,-0.481361,3.24683,1.09968,0.0933949,3.89945,0.28354,-0.000123119,51.5625
1520,5109.28,-2.40554,2.82333,1.09968,0.113662,3.89945,0.339421,-0.000184631,51.3762
1562,5151.49,-0.96227,3.13387,1.10181,0.127076,3.90699,0.379247,-6.15597e-05,51.3928
1604,5193.72,-0.000631677,3.34377,1.1061,0.129333,3.92299,0.386321,-6.15597e-05,51.3795
1647,5235.04,-0.481361,3.24313,1.1061,0.130687,3.92299,0.390713,-6.15597e-05,51.4129
1689,5277.26,-0.000631677,3.34193,1.10716,0.136285,3.92666,0.408534,6.15597e-05,51.5328
1731,5319.5,-0.96227,3.13849,1.10716,0.141252,3.92666,0.424458,-0.000184679,51.6227
1773,5361.73,-0.481361,3.23852,1.10823,0.146555,3.93033,0.44149,0.0,51.5795
1815,5403.95,-0.000451223,3.34008,1.1093,0.151797,3.934,0.458138,0.0,51.523
1857,5446.03,-0.481541,3.2379,1.1093,0.156224,3.934,0.472478,0.0,51.6596
1899,5488.24,0.962631,3.52597,1.11125,0.181221,3.94086,0.540453,0.000923347,51.5732
1941,5530.33,-0.000451223,3.34131,1.11571,0.189767,3.95748,0.567188,-0.079528,51.6032
1984,5571.92,-0.000451223,3.33977,1.11571,0.189771,3.95748,0.567205,-6.15597e-05,51.6032
2026,5614.05,-0.96227,3.13757,1.11571,0.193551,3.95748,0.57944,-0.0197589,51.5599
2068,5656.14,-0.481361,3.23821,1.11678,0.197563,3.96113,0.592102,-0.000123119,51.6896
2110,5698.24,-0.481361,3.23698,1.11784,0.203723,3.9648,0.611713,-0.000123119,51.7559
2152,5740.36,-0.962451,3.13357,1.11784,0.209677,3.9648,0.630908,-0.0200051,51.7691
2194,5782.53,-0.481541,3.23636,1.11892,0.213387,3.96848,0.642647,-0.000123119,51.8256
2236,5824.8,-2.4059,2.80948,1.11892,0.230189,3.96848,0.688862,-0.000184679,51.6291
2278,5866.96,-0.962451,3.12279,1.12105,0.246191,3.97597,0.73522,0.0,51.8753
2320,5909.14,-0.000451223,3.337,1.12532,0.250195,3.9919,0.747725,0.000123119,51.7688
2363,5951.02,-0.481361,3.23729,1.12532,0.250743,3.9919,0.749501,-0.000184631,51.7921
2405,5993.1,0.481,3.43241,1.12614,0.257154,3.99472,0.769905,0.00036931,51.7322
2447,6035.26,-0.96227,3.13295,1.12639,0.26045,3.99557,0.780557,-0.0199435,51.7189
2489,6077.37,-0.481541,3.23144,1.12745,0.266575,3.99922,0.800039,0.0,51.6922
2531,6119.54,-0.000451223,3.33269,1.12852,0.27267,4.00287,0.819402,-0.0195742,51.6357
2573,6161.67,-0.481361,3.23082,1.12852,0.27625,4.00287,0.830976,-0.000123119,51.5658
2615,6203.92,0.962631,3.50166,1.12878,0.302062,4.0038,0.901259,0.140836,51.3928
2657,6246.05,1.92481,3.72633,1.13231,0.310611,4.01654,0.927909,0.001600409,51.5427
2699,6288.2,-0.000451223,3.33454,1.13493,0.310616,4.02629,0.927923,0.0,51.5893
2742,6330.03,-0.481361,3.23051,1.13493,0.313569,4.02629,0.937469,-0.000123119,51.5628
2784,6372.17,-0.481361,3.23452,1.13599,0.317595,4.02995,0.950147,-0.0197588,51.5495
2826,6414.28,0.481,3.42933,1.13684,0.323987,4.03284,0.970465,0.000307751,51.5662
2868,6456.4,-0.481541,3.22682,1.13706,0.329394,4.03361,0.987918,-6.1512e-05,51.7328
2910,6498.59,-0.481361,3.23144,1.13813,0.333434,4.03726,1.00063,-0.000246191,51.6896
2952,6540.77,-2.40554,2.79748,1.13813,0.347016,4.03726,1.03794,0.0623544,51.7196
2994,6582.98,-0.96227,3.10895,1.14027,0.365452,4.04476,1.09036,0.0,51.7496
3036,6625.19,-0.000451223,3.32562,1.14453,0.371062,4.06063,1.1078,6.15597e-05,51.7461
3079,6667,-0.000270769,3.32931,1.14453,0.371067,4.06063,1.10781,0.000123119,51.6694
3121,6709.18,0.480819,3.41672,1.14456,0.378021,4.06073,1.1299,0.0597691,51.6095
3163,6751.32,-0.481361,3.22282,1.1456,0.380481,4.06428,1.13783,-6.15597e-05,51.7691
3205,6793.52,-0.481361,3.22005,1.14667,0.386659,4.06793,1.15741,-6.15597e-05,51.7225
3247,6835.7,0.481,3.4161,1.14703,0.393529,4.06919,1.17919,0.00080018,51.9087
3289,6877.9,-0.481361,3.2179,1.14774,0.396332,4.07159,1.18821,-0.000123119,51.8321
3331,6920.07,-2.40572,2.77963,1.14774,0.41966,4.07159,1.25141,-0.000123119,51.8587
3373,6962.2,-0.96227,3.09602,1.14988,0.430735,4.07907,1.28468,-0.000123119,51.9118
3415,7004.41,-0.000270769,3.313,1.15415,0.431479,4.09495,1.28698,0.000123119,51.8054
3458,7046.07,-0.481361,3.20866,1.15415,0.433633,4.09495,1.2939,-0.000123119,51.7123
3500,7088.26,-0.000270769,3.31023,1.15522,0.438439,4.09858,1.30898,6.15597e-05,51.709
3542,7130.42,0.481,3.40164,1.15528,0.444856,4.09878,1.32922,0.0603231,51.5893
3584,7172.55,-0.481361,3.20189,1.15629,0.44948,4.10222,1.34403,-6.15597e-05,51.749
3626,7214.68,-0.000451223,3.30623,1.15736,0.453945,4.10586,1.358,0.0,51.819
3668,7256.87,-3.84935,2.4617,1.15736,0.461858,4.10586,1.38106,-0.002154398,51.7127
3710,7298.98,-0.962451,3.09079,1.15949,0.484689,4.11331,1.44302,-0.000184679,51.7992
3752,7341.14,-0.000270769,3.3053,1.16376,0.491903,4.12916,1.4653,-6.15597e-05,51.7992
3795,7382.99,-0.000451223,3.305,1.16376,0.491907,4.12916,1.46532,0.0,51.6395
3837,7425.14,-0.96227,3.09356,1.16376,0.497296,4.12916,1.48239,-0.000184679,51.4364
3879,7467.35,-0.481361,3.1982,1.16482,0.500517,4.13278,1.49253,-0.000123119,51.7191
3921,7509.51,-0.481541,3.19728,1.16589,0.5066873,4.13641,1.51192,-6.15597e-05,51.4861
3963,7551.66,-0.96209,3.09079,1.16589,0.513482,4.13641,1.5334,-0.000184679,51.5326
4005,7593.9,-0.481361,3.19666,1.16696,0.51637,4.14003,1.54254,-0.000123119,51.4028
4047,7636.09,-2.40572,2.75347,1.16696,0.53652,4.14003,1.59658,-6.15597e-05,51.6124
4089,7678.23,-0.962451,3.08186,1.1691,0.549997,4.14752,1.63572,0.0,51.6157
4131,7720.37,-0.000270769,3.30223,1.17337,0.552339,4.1634,1.64294,-6.15597e-05,51.5725
4174,7762.04,-0.481361,3.19574,1.17337,0.553687,4.1634,1.64725,-0.000123119,51.5026
4216,7804.22,-0.000451223,3.29976,1.17444,0.559291,4.16703,1.66481,6.15597e-05,51.5658
4258,7846.32,-0.962451,3.08586,1.17444,0.564194,4.16703,1.68029,-0.000246191,51.5393
4300,7888.5,-0.481361,3.19174,1.1755,0.569523,4.17065,1.69714,6.15597e-05,51.5393
4342,7930.68,-0.000451223,3.29884,1.17657,0.5748,4.17429,1.71364,6.1512e-05,51.5559
4384,7972.89,-0.4811804,3.19112,1.17657,0.579199,4.17429,1.72768,0.0,51.7657
4426,8015.09,0.962631,3.50597,1.17847,0.60424,4.18091,1.79314,0.00080018,51.666
4468,8057.26,-0.000270769,3.30253,1.18297,0.612794,4.19771,1.8194,-0.0882071,51.7991
4511,8098.97,-0.000451223,3.30069,1.18297,0.612798,4.19771,1.81942,-6.15597e-05,51.7957
4553,8141.08,-0.96227,3.07848,1.18297,0.616569,4.19771,1.83144,-0.0217901,51.7589
4595,8183.27,-0.481361,3.18897,1.18404,0.620595,4.20135,1.84392,-0.000184679,51.8719
4637,8225.4,-0.481361,3.18773,1.18511,0.626753,4.20499,1.86319,-0.000123119,51.8819
4679,8267.53,-0.96227,3.07478,1.18511,0.632723,4.20499,1.88214,-0.0220364,51.7455
4721,8309.68,-0.481541,3.18773,1.18618,0.636414,4.20863,1.89361,-6.15597e-05,51.7988
4763,8351.8,-2.40572,2.715,1.18618,0.653168,4.20863,1.9377,-0.000123072,51.7656
4805,8394.01,-0.96227,3.06616,1.18831,0.669217,4.21607,1.98285,6.15597e-05,51.9387
4847,8436.22,-0.000270769,3.29884,1.19258,0.673226,4.23202,1.99514,6.1512e-05,51.8024
4890,8478.03,-0.481361,3.18989,1.19258,0.673768,4.23202,1.99687,-0.000123072,51.8591
4932,8520.29,0.481,3.40256,1.19342,0.680178,4.23487,2.01694,0.00036931,51.8425
4974,8562.54,-0.96209,3.07571,1.19365,0.683532,4.23565,2.02761,-0.0218517,51.826
5016,8604.71,-0.481361,3.18343,1.19472,0.689629,4.23927,2.04668,-6.15597e-05,51.6465
5058,8646.87,-0.000270769,3.29422,1.19579,0.695686,4.2429,2.0656,-0.0213593,51.7661
5100,8689.11,-0.481361,3.18343,1.19579,0.699312,4.2429,2.07715,0.0,51.8126
5142,8731.3,0.962812,3.48166,1.19613,0.725094,4.24409,2.14455,0.154439,51.7127
5184,8773.42,1.92499,3.72664,1.19975,0.733644,4.25717,2.17074,0.00141573,51.6993
5226,8815.62,-0.000451223,3.29699,1.2022,0.733647,4.26631,2.17075,6.15597e-05,51.616
5269,8857.11,-0.481541,3.18496,1.2022,0.736605,4.26631,2.18018,0.0,51.4728
5311,8899.27,-0.481541,3.18804,1.20327,0.740638,4.26994,2.19266,-0.0214824,51.4594
5353,8941.46,0.481,3.39948,1.20413,0.74702,4.27286,2.21263,0.00043087,51.4328
5395,8983.59,-0.481361,3.18096,1.20434,0.752447,4.27356,2.2299,0.0,51.5825
5437,9025.7,-0.481541,3.18496,1.20541,0.756472,4.27719,2.24235,-0.000307798,51.7022
5479,9067.88,-2.40572,2.715,1.20541,0.770046,4.27719,2.27819,0.0735572,51.6457
5521,9110.03,-0.96227,3.05755,1.20755,0.78843,4.28465,2.32904,0.0,51.7654
5563,9152.15,-0.000451223,3.29053,1.21182,0.794034,4.30054,2.34617,6.15597e-05,51.649
5606,9194.04,-0.000270769,3.29392,1.21182,0.794038,4.30054,2.34619,6.15597e-05,51.7855
5648,9236.2,0.480819,3.38932,1.21184,0.800989,4.30062,2.36795,0.064201,51.7289
5690,9278.39,-0.481361,3.18066,1.21289,0.803448,4.30416,2.37578,-0.000123119,51.862
5732,9320.55,-0.481361,3.17881,1.21395,0.809615,4.30779,2.39503,-6.15597e-05,51.8488
5774,9362.68,0.481,3.38963,1.21431,0.816494,4.30899,2.41653,0.00080018,51.779
5816,9404.86,-0.481361,3.17727,1.21502,0.819283,4.31141,2.4254,-0.000123119,51.7657
5858,9447.13,-2.40572,2.69869,1.21502,0.842643,4.31141,2.48646,-0.000246191,51.8124
5900,9489.26,-0.96227,3.04678,1.21716,0.853709,4.31885,2.51906,-6.1512e-05,51.7991
5942,9531.44,-0.000451223,3.28037,1.22144,0.854439,4.33472,2.52129,0.0,51.8723
5985,9573.11,-0.481361,3.16988,1.22144,0.856593,4.33472,2.52812,-0.000123119,51.7991
6027,9615.27,-0.000631677,3.2776,1.22251,0.86139,4.33834,2.54296,0.0,52.1184
6069,9657.51,0.480819,3.37394,1.22258,0.867808,4.33857,2.56292,0.0643241,52.1282
6111,9699.68,-0.481361,3.16065,1.22358,0.872441,4.34196,2.57758,0.0,52.3011
6153,9741.77,-0.000270769,3.27114,1.22465,0.876901,4.34556,2.59131,0.000123119,52.0616
6195,9783.93,-3.84935,2.32967,1.22465,0.884814,4.34556,2.61376,-0.002154398,52.0416
6237,9826.09,-0.96227,3.03446,1.22679,0.907648,4.35295,2.67363,-0.000123119,52.1547
6279,9868.25,-0.000451223,3.26283,1.23108,0.91484,4.3688,2.69544,0.0,51.9884
6322,9910.01,-0.000451223,3.26345,1.23108,0.914844,4.3688,2.69546,-6.15597e-05,52.1481
6364,9952.21,-0.962451,3.03785,1.23108,0.920243,4.3688,2.71229,-0.000307751,52.1449
6406,9994.37,-0.481361,3.14865,1.23215,0.923449,4.37239,2.72221,-0.000123119,52.2148
6448,10036.5,-0.481361,3.14557,1.23322,0.929619,4.37598,2.74127,-0.000123119,52.1817
6490,10078.8,-0.96227,3.03077,1.23322,0.936431,4.37598,2.76243,-0.000184631,52.1518
6532,10120.9,-0.481361,3.14311,1.23428,0.939303,4.37957,2.77136,-6.15597e-05,52.1054
6574,10163,-2.40572,2.67437,1.23428,0.959373,4.37957,2.82332,-0.000184679,52.162
6616,10205.2,-0.96227,3.01815,1.23642,0.972899,4.38693,2.86161,-6.15597e-05,51.9094
6658,10247.4,-0.000270769,3.25021,1.2407,0.97527,4.40266,2.86877,0.0,51.8362
6701,10289.1,-0.481361,3.14003,1.2407,0.976623,4.40266,2.87302,-0.000184679,51.9291
6743,10331.2,-0.000451223,3.2456,1.24176,0.982233,4.40623,2.89027,0.000123119,51.9889
6785,10373.4,-0.962451,3.02277,1.24176,0.987145,4.40623,2.90548,-0.000246191,52.0354
6827,10415.6,-0.481361,3.1311,1.24283,0.992472,4.40981,2.922,0.0,52.1251
6869,10457.7,-0.000451223,3.24129,1.2439,0.997749,4.41338,2.93817,0.000123119,52.0851
6911,10499.9,-0.481541,3.12833,1.2439,1.00215,4.41338,2.95195,-0.000123119,52.1748
6953,10542.1,0.962631,3.43611,1.24579,1.02715,4.41984,3.0156,0.001046419,52.1615
6995,10584.2,-0.000270769,3.23698,1.25031,1.0357,4.43635,3.04129,-0.0866682,52.075
7038,10626,-0.000270769,3.23636,1.25031,1.0357,4.43635,3.0413,6.15597e-05,51.7988
7080,10668.2,-0.481361,3.12095,1.25031,1.03943,4.43635,3.05297,-0.000123072,52.0516
7122,10710.4,-0.481361,3.12187,1.25138,1.04346,4.43992,3.0652,-0.000246239,51.7887
7164,10752.5,-0.481361,3.11818,1.25245,1.04964,4.44347,3.08409,-0.000184631,52.0848
7206,10794.6,-0.96227,3.004,1.25245,1.05562,4.44347,3.10265,-0.00043087,51.8952
7248,10836.8,-0.4811804,3.11541,1.25352,1.05929,4.44703,3.11382,-6.15597e-05,52.0017
7290,10878.9,-2.40572,2.64267,1.25352,1.07612,4.44703,3.15695,-0.000246191,52.0782
7332,10921.1,-0.96227,2.98399,1.25565,1.0921,4.4543,3.2007,-0.000123119,51.9485
7374,10963.3,-0.000451223,3.21697,1.25993,1.0961,4.4699,3.21263,0.0,52.0084
7417,11005.1,-0.481361,3.10895,1.25993,1.096644,4.4699,3.21432,-0.000307751,52.0384
7459,11047.3,0.481,3.31546,1.26076,1.10305,4.47266,3.23385,0.000553989,52.0118
7501,11089.4,-0.96227,2.99076,1.261,1.10637,4.47344,3.24412,-0.0214824,52.2647
7543,11131.6,-0.481361,3.09356,1.26206,1.11249,4.47697,3.26272,-0.000123119,52.3546
7585,11173.7,-0.000451223,3.20189,1.26313,1.11856,4.4805,3.28116,-0.0210515,52.2382
7627,11215.9,-0.481361,3.08925,1.26313,1.12216,4.4805,3.29228,-6.15597e-05,52.1518
7669,11258.1,0.962631,3.38163,1.26341,1.14796,4.48145,3.35743,0.153085,51.9755
7711,11300.2,1.92463,3.626,1.26697,1.15652,4.49392,3.3828,0.002154398,52.1651
7753,11342.4,-0.000451223,3.20097,1.26954,1.15652,4.50325,3.38282,0.0,52.1916
7796,11384.1,-0.481361,3.08555,1.26954,1.15948,4.50325,3.39195,-0.000184679,52.2048
7838,11426.3,-0.481541,3.08925,1.27061,1.16352,4.50676,3.40405,-0.0212977,52.3011
7880,11468.5,0.480819,3.2973,1.27147,1.16989,4.50958,3.42336,0.000553989,52.4608
7922,11510.6,-0.481361,3.07694,1.27168,1.17532,4.51029,3.44006,0.0,52.4873
7964,11552.8,-0.4811804,3.08217,1.27275,1.17934,4.51381,3.45209,-0.00036931,52.321
8006,11595,-2.40572,2.59712,1.27275,1.19297,4.51381,3.4866,0.0724492,52.4507
8048,11637.1,-0.96209,2.90643,1.27489,1.21134,4.52093,3.53494,-0.000369358,52.3742
8090,11679.3,-0.000451223,3.13511,1.27915,1.21694,4.5361,3.55116,6.15597e-05,52.3111
8133,11721.1,-0.000451223,3.13726,1.27915,1.21694,4.5361,3.55117,0.0,52.3378
8175,11763.2,0.480819,3.20897,1.27917,1.2239,4.53617,3.57179,0.0633392,52.4376
8217,11805.4,-0.481361,2.99784,1.28022,1.22635,4.53953,3.57914,-0.000307751,52.5209
8259,11847.5,-0.481361,2.97845,1.28128,1.23252,4.54294,3.59723,-0.000246239,52.4445
8301,11889.7,0.48118,3.16281,1.28164,1.2394,4.54405,3.61728,0.001477289,52.4579
8343,11931.8,-0.4811804,2.94336,1.28235,1.24218,4.54632,3.62548,-0.00036931,52.5145
8385,11974.0,-2.40572,2.32044,1.28235,1.26543,4.54632,3.67934,-0.00320082,52.1888
8427,12016.2,-0.96227,2.58019,1.2845,1.27657,4.55292,3.70751,-0.001846647,52.1455
8469,12058.3,-0.000270769,2.86735,1.28877,1.27735,4.56687,3.70952,0.000123119,51.9291
8512,12100.2,-0.481361,2.73716,1.28877,1.2795,4.56687,3.71544,-0.000861788,52.0188
8554,12142.3,-0.000270769,2.80518,1.28984,1.28429,4.56998,3.72805,0.000184679,51.7859
8596,12184.5,0.481,2.79102,1.2899,1.29071,4.57013,3.74465,0.062539,51.7292
8638,12226.6,-0.4811804,2.47309,1.29091,1.29533,4.57297,3.75644,-0.002831507,51.586
8681,12667.1,1.0996,3.32038,1.32911,1.29817,4.6941,3.76293,0.00080018,51.7123
8723,12877.1,1.09942,3.48443,1.39327,1.29817,4.91401,3.76293,0.0,51.8124
8765,13087.2,1.0996,3.50782,1.45744,1.29817,5.13831,3.76293,6.15597e-05,51.8654
8807,13297.4,1.0996,3.53798,1.52161,1.29817,5.36445,3.76293,0.000123119,51.7921
8849,13507.5,1.0996,3.5586,1.58579,1.29817,5.59222,3.76293,0.000123072,52.2314
8891,13717.6,1.09978,3.57276,1.64996,1.29817,5.82102,3.76293,0.0,52.3548
8933,13927.6,1.0996,3.57676,1.71412,1.29817,6.05041,3.76293,-6.1512e-05,52.3485
8975,14137.8,1.0996,3.58107,1.77829,1.29817,6.2801,3.76293,-6.15597e-05,52.3778
9017,14347.8,1.09942,3.58537,1.84246,1.29817,6.51001,3.76293,0.0,52.5505
9059,14557.9,1.0996,3.5903,1.90663,1.29817,6.74024,3.76293,0.0,52.4574
9101,14768.1,1.09942,3.59645,1.9708,1.29817,6.97082,3.76293,6.15597e-05,52.391
9143,14974.1,1.07722,3.60138,2.03339,1.29817,7.19615,3.76293,6.15597e-05,52.4077
9185,15184.2,1.05611,3.60138,2.09557,1.29817,7.42006,3.76293,6.15597e-05,52.2345
9227,15394.3,1.03626,3.60107,2.15665,1.29817,7.64005,3.76293,-6.15597e-05,52.4675
9269,15604.3,1.00684,3.60107,2.21633,1.29817,7.85495,3.76293,0.0,52.3084
9311,15814.4,0.945127,3.60107,2.27355,1.29817,8.061,3.76293,0.0,51.9889
9353,16024.5,0.748974,3.60138,2.3242,1.29817,8.24339,3.76293,6.15597e-05,52.0151
9395,16234.6,0.322381,3.60107,2.35549,1.29817,8.35607,3.76293,0.0,51.7189
9437,16444.7,0.121175,3.60107,2.36715,1.29817,8.39807,3.76293,0.0,51.8321
9479,16654.8,0.0639708,3.60138,2.37227,1.29817,8.41649,3.76293,0.0,51.9455
9545,16864.8,0.0832794,3.50874,2.37349,1.3031,8.4209,3.77858,0.0009233,51.9087
9587,16907,-0.046467,3.41271,2.37431,1.3115,8.42384,3.80454,0.0439497,52.0384
9629,16949.2,0.283222,3.46811,2.37561,1.31876,8.42835,3.82642,0.00049243,51.9485
9671,16991.3,-0.343855,3.30069,2.37679,1.32626,8.43247,3.84854,0.0126801,52.0183
9713,17033.4,-1.01388,3.13911,2.3771,1.33391,8.43354,3.8724,-0.00923309,51.9551
9755,17075.7,-0.683469,3.20712,2.37733,1.34092,8.43433,3.89468,0.005047417,51.8653
9797,17117.8,-0.648461,3.21205,2.37741,1.34619,8.4346,3.91159,0.008002043,51.9351
9839,17160,-1.84,2.9289,2.37759,1.35863,8.43523,3.9487,-0.00658631,51.8421
9881,17202.3,-0.920947,3.14188,2.37857,1.36589,8.43862,3.97097,-0.0301615,51.8255
9923,17244.5,-0.848585,3.15326,2.37858,1.37448,8.43863,3.99794,0.008186674,52.0717
9965,17286.7,-0.180905,3.30469,2.37897,1.37967,8.43998,4.01432,0.01249547,51.8623
10007,17328.9,0.0352786,3.35762,2.38088,1.38251,8.44655,4.0234,-0.0071403,51.9622
10049,17371.1,-1.27861,3.06186,2.38169,1.38687,8.44932,4.03681,-0.0557065,51.8724
10091,17413.2,-1.83892,2.92582,2.38255,1.39424,8.45225,4.05848,0.002585268,51.8858
10134,17454.8,-1.31145,3.04739,2.38392,1.39962,8.457,4.07344,-0.0605693,51.8094
10176,17497,-2.27886,2.82241,2.38493,1.40633,8.46046,4.09354,-0.04413433,51.8661
10218,17539.1,0.198409,3.37732,2.38538,1.41754,8.46197,4.12667,-0.0118799,51.7362
10260,17581.3,-2.84675,2.68268,2.38741,1.42161,8.46893,4.13801,0.00036931,51.8559
10302,17623.4,0.478293,3.44257,2.38768,1.42909,8.46985,4.16107,0.019328,51.7559
10344,17665.6,-0.586746,3.20497,2.3879,1.43792,8.47058,4.18844,0.0204976,51.7426
10386,17707.7,-0.93033,3.12957,2.38804,1.44368,8.47106,4.20671,-0.0200666,51.7591
10428,17749.8,-0.414232,3.23944,2.38822,1.45301,8.47168,4.23482,-0.008617592,51.9387
10470,17792,-1.46249,3.00769,2.38915,1.4632,8.47489,4.26533,-0.0460425,51.7656
10512,17834.2,-0.606957,3.19635,2.38919,1.47083,8.47503,4.28922,0.0176045,51.7523
10554,17876.3,-0.351615,3.25483,2.38932,1.47757,8.47547,4.3103,0.009110021,51.5492
10596,17918.6,0.48497,3.44442,2.3904,1.48132,8.47915,4.32226,0.0214824,51.6989
10638,17960.7,0.00153377,3.33362,2.39189,1.48518,8.48428,4.33407,0.0552756,51.7887
10680,18002.9,-0.000270769,3.3367,2.39316,1.48934,8.48859,4.34672,0.000246191,51.8653
10723,18044.8,-0.001533946,3.3367,2.39452,1.49576,8.49329,4.3643,6.15597e-05,51.8653
10765,18086.9,-0.000451223,3.3367,2.39555,1.50099,8.49681,4.38001,-6.15597e-05,51.8819
10807,18129.1,-2.26803,2.81379,2.39566,1.51312,8.49716,4.41591,-0.00757117,51.8719
10849,18171.2,-0.000451223,3.33762,2.39803,1.51636,8.50526,4.42527,6.15597e-05,51.8587
10891,18213.4,-0.297659,3.26314,2.39815,1.52709,8.50569,4.45694,0.0185278,51.9053
10933,18255.5,-0.0257148,3.321,2.39849,1.53506,8.50683,4.48156,0.0397024,51.7888
10975,18297.8,-0.192093,3.28622,2.39865,1.54096,8.50738,4.50026,0.008002043,51.5726
11017,18340,0.566174,3.44072,2.39868,1.55035,8.50748,4.52851,0.162749,51.8389
11059,18382.1,0.363885,3.40379,2.3993,1.56054,8.50961,4.55903,0.009971762,51.6792
11101,18424.4,0.002796947,3.32408,2.39981,1.56773,8.51135,4.58141,0.0406873,51.7259
11143,18466.5,0.197687,3.36747,2.39992,1.57522,8.51173,4.60476,0.00609388,51.7991
11185,18508.666,-0.10331,3.30407,2.4002,1.58007,8.51269,4.620227,0.0326852,51.7392
11227,18550.8,0.40142,3.41979,2.40228,1.58209,8.5198,4.62636,0.0118184,51.8256
11269,18593,0.426322,3.4201,2.40334,1.5881,8.5234,4.64465,0.0906693,51.8256
11311,18635.1,-0.000451223,3.32992,2.40514,1.59452,8.52958,4.66222,-0.001600409,51.779
11354,18676.9,0.382291,3.41425,2.40593,1.59975,8.5323,4.67788,-0.008432913,51.9254
11396,18719.1,-0.244966,3.26929,2.40627,1.60817,8.53342,4.70281,-0.01329565,51.4994
11438,18761.2,0.400156,3.41887,2.40838,1.61512,8.54064,4.72306,0.0109566,51.5726
11480,18803.4,-0.695379,3.16219,2.40864,1.62509,8.5415,4.75221,0.0338548,51.466
11522,18845.6,-1.51915,2.9806,2.40895,1.63192,8.54256,4.77326,-0.0425955,51.7388
11564,18887.8,-0.575919,3.19174,2.40923,1.63845,8.54351,4.79377,-0.00036931,51.7621
11606,18930,-1.42171,3.00123,2.40926,1.64488,8.5436,4.81401,-0.0279456,51.7123
11648,18972.2,-1.2824,3.02123,2.40963,1.65791,8.54487,4.85207,-0.002708387,51.709
11690,19014.4,-0.277087,3.24867,2.41042,1.66433,8.54756,4.87201,0.0212977,51.5727
11732,19056.5,-1.09184,3.06524,2.41042,1.67284,8.54756,4.89842,0.0131726,51.6293
11774,19098.7,-0.825306,3.12772,2.41081,1.67744,8.54889,4.9129,-0.0162503,51.616
11816,19140.9,-0.0017144,3.31792,2.41272,1.67889,8.55543,4.91748,-6.15597e-05,51.6758
11858,19183,0.245327,3.36624,2.41383,1.68471,8.55918,4.93515,-0.000984859,51.5759
11900,19225.2,0.5844,3.43334,2.41474,1.69331,8.56227,4.95914,0.0234521,51.5326
11943,19266.9,0.366051,3.38378,2.41582,1.69826,8.56593,4.97383,0.0381636,51.5326
11985,19309,-0.130017,3.26775,2.41676,1.7065,8.56915,4.998,0.0586611,51.476
12027,19351.2,0.297117,3.36963,2.41792,1.71391,8.57306,5.01958,0.001600409,51.5958
12069,19393.4,-0.641423,3.15511,2.41925,1.72102,8.57755,5.03984,0.009540891,51.6423
12111,19435.6,-0.808524,3.11849,2.41956,1.72856,8.57861,5.0628,0.002400589,51.5725
12153,19477.8,0.168815,3.33331,2.41974,1.73588,8.57923,5.0856,0.0414259,51.649
12195,19520,-0.283764,3.23544,2.41987,1.74112,8.57966,5.10208,0.007694244,51.6823
12237,19562.2,-2.55261,2.71469,2.42005,1.75263,8.58027,5.13605,-0.0382867,51.5525
12279,19604.3,-0.141205,3.26622,2.42104,1.76063,8.58363,5.15992,-0.0106489,51.5393
12321,19646.5,-1.03896,3.06493,2.42104,1.76902,8.58363,5.18587,-0.0135419,51.5726
12363,19688.7,-0.464037,3.19574,2.42141,1.77472,8.5849,5.20358,-0.02080531,51.6193
12405,19730.833,0.17477,3.34224,2.42327,1.77763,8.5912,5.21273,-0.008002043,51.6792
12447,19773,-0.48894,3.19297,2.42415,1.78152,8.59417,5.22449,-0.02302127,51.6527
12489,19815.2,-3.55251,2.46355,2.42501,1.78812,8.59706,5.24391,-0.082975,51.6827
12532,19856.8,-1.51753,2.96214,2.42639,1.79373,8.60176,5.25907,0.0238214,51.7259
12574,19899,-2.01125,2.84457,2.4274,1.80016,8.60519,5.27819,0.002831507,51.7524
12616,19941.1,0.353238,3.36747,2.42767,1.8126,8.60609,5.3143,0.0478276,51.7657
12658,19983.2,-2.6358,2.69684,2.42988,1.8151,8.61356,5.3213,-0.04641185,51.5859
12700,20025.4,0.0390682,3.30438,2.43006,1.82396,8.61415,5.34763,0.0146499,51.6857
12742,20067.6,-1.05105,3.06093,2.43036,1.83268,8.61518,5.37427,-0.0121877,51.9053
12784,20109.8,-0.4741427,3.18897,2.4305,1.8385,8.61566,5.3925,-0.0205591,51.7388
12826,20151.9,-0.314621,3.22128,2.43069,1.84783,8.61627,5.42021,0.0108335,51.7056
12868,20194.1,-1.52186,2.95629,2.43162,1.85763,8.61944,5.4492,-0.0528134,51.7322
12910,20236.3,-0.912104,3.08925,2.43166,1.86553,8.61958,5.47356,-0.02302127,51.6257
12952,20278.5,-0.557151,3.16958,2.43179,1.87249,8.62001,5.49506,0.008309794,51.709
12994,20320.7,-0.00117304,3.29699,2.4327,1.87638,8.62309,5.5073,-0.02283659,51.7656
13036,20362.9,-0.695379,3.14003,2.43435,1.88005,8.6287,5.51839,0.0294229,51.8655
13078,20405,-0.000451223,3.29607,2.43562,1.88438,8.63297,5.53139,6.1512e-05,51.7725
13121,20446.8,-0.000631677,3.2973,2.43699,1.89078,8.63763,5.54868,6.15597e-05,51.7859
13163,20489,-0.000451223,3.29761,2.43802,1.89601,8.6411,5.56416,6.15597e-05,51.8858
13205,20531.2,-2.02262,2.83472,2.43812,1.90701,8.64146,5.59643,-0.022098,51.826
13247,20573.3,-0.000451223,3.29853,2.4405,1.91138,8.64947,5.60884,-0.000246191,51.6465
13289,20615.4,-0.717395,3.1311,2.44062,1.92197,8.64989,5.63967,-0.006894064,51.7362
13331,20657.5,-0.920766,3.0834,2.44081,1.93003,8.65053,5.66427,0.0122493,51.7827
13373,20699.7,-0.375073,3.20774,2.44112,1.93571,8.65157,5.68204,-0.0174814,51.7859
13415,20741.9,-1.06296,3.04708,2.44112,1.94412,8.65157,5.7076,-0.008617592,51.6694
13457,20784.1,0.154198,3.317,2.44156,1.95559,8.65305,5.74099,0.0222211,51.7324
13499,20826.3,-0.921488,3.08155,2.44228,1.96257,8.65549,5.76243,-0.004431915,51.7357
13541,20868.4,0.0663167,3.29976,2.44235,1.97008,8.65572,5.78557,0.001538849,51.6058
13583,20910.6,-0.843171,3.10187,2.44267,1.97503,8.65682,5.80114,-0.000615549,51.5326
13625,20952.7,0.139942,3.32315,2.44462,1.97715,8.66344,5.80752,0.05742998,51.7855
13667,20994.9,-1.78063,2.89227,2.44579,1.98271,8.66735,5.8243,-0.0279456,51.6423
13709,21037.2,-0.000451223,3.29145,2.44761,1.98955,8.67354,5.84284,-0.0148345,51.7322
13752,21079,0.566715,3.41518,2.44812,1.99477,8.67526,5.85826,0.0336086,51.8653
13794,21121.1,0.187762,3.32562,2.44871,2.00313,8.67723,5.8827,0.0309617,51.7488
13836,21163.3,0.698086,3.44565,2.45054,2.01013,8.68338,5.90283,0.0250525,51.9418
13878,21205.4,-1.46231,2.95475,2.45112,2.01959,8.68534,5.93007,-0.002400637,51.8287
13920,21247.6,-0.565272,3.15727,2.45143,2.02634,8.68638,5.95064,0.0205591,51.9186
13962,21289.8,-0.386081,3.1982,2.45171,2.03313,8.68732,5.97169,-0.003631735,51.9785
14004,21332,-1.29196,2.99538,2.45174,2.03933,8.68742,5.991,-0.0105258,51.9819
14046,21374.1,-2.06286,2.8101,2.45211,2.05202,8.68868,6.02771,-0.0205591,52.115
14088,21416.3,-0.971654,3.06247,2.4529,2.05891,8.69135,6.04871,0.00313926,52.1184
14130,21458.4,-1.39211,2.96645,2.4529,2.06726,8.69135,6.07437,-0.0380404,52.1651
14172,21500.6,-0.458263,3.17789,2.4533,2.07215,8.69269,6.08956,0.0156963,51.9455
14214,21542.8,-0.000270769,3.28776,2.45521,2.07396,8.69917,6.09522,0.0,51.9455
14256,21585,0.370742,3.36224,2.45613,2.0798,8.70223,6.11276,0.0270223,52.1916
14298,21627.1,0.378682,3.35301,2.45693,2.08841,8.70493,6.13652,0.0179122,52.1916
14341,21668.9,0.0877907,3.28868,2.45825,2.09336,8.7094,6.15102,0.0758347,52.0983
14383,21711.1,-1.33581,2.96706,2.45926,2.10104,8.71279,6.17324,0.0105258,52.2412
14425,21753.2,0.310651,3.3367,2.46024,2.10903,8.71607,6.19632,0.000738621,52.1747
14467,21795.3,-0.853998,3.07078,2.46174,2.11575,8.72109,6.21509,0.0229597,52.158
14509,21837.5,-0.863201,3.06863,2.46205,2.12304,8.72213,6.23707,-0.0168658,52.1115
14551,21879.7,-0.778929,3.08617,2.46223,2.13049,8.72273,6.25995,0.00769429,52.1947
14593,21921.9,-0.371284,3.17635,2.46236,2.13593,8.72316,6.2768,0.0159425,52.2646
14635,21964.1,-2.00385,2.80056,2.46254,2.14664,8.72376,6.30814,-0.0196358,52.3345
14677,22006.3,0.0443013,3.26098,2.46351,2.15571,8.72702,6.3346,0.02283659,52.1983
14719,22048.4,-0.73165,3.08463,2.46352,2.1639,8.72704,6.35954,0.003939438,52.0054
14761,22090.5,0.016331,3.25175,2.46366,2.16981,8.72751,6.37759,0.003016138,52.0621
14803,22132.7,0.35793,3.33577,2.46568,2.17283,8.7343,6.38696,-0.004924345,52.0455
14845,22174.8,0.004601486,3.25298,2.46664,2.17668,8.73747,6.39841,-0.00640163,51.9991
14887,22217,-1.68048,2.87412,2.4675,2.18195,8.74032,6.41395,-0.0495511,52.2021
14930,22258.8,-2.04084,2.79102,2.46886,2.18838,8.7449,6.43099,-0.0747267,51.9527
14972,22301,-2.04914,2.78517,2.46988,2.19447,8.7483,6.44876,-0.0510284,51.8826
15014,22343.1,-0.200214,3.1865,2.46999,2.20779,8.74865,6.4867,0.0640779,52.0487
15056,22385.3,-2.25991,2.73777,2.47236,2.20888,8.75655,6.48985,-0.0972556,52.0354
15098,22427.5,-0.290441,3.17388,2.47249,2.21916,8.75696,6.51942,-0.006955576,51.9221
15140,22469.7,-0.777305,3.06186,2.47282,2.22764,8.75807,6.54481,-0.016435,52.0717
15182,22511.9,-1.29449,2.9489,2.47299,2.23326,8.7586,6.56211,-0.0364401,52.045
15224,22554.1,0.0959112,3.24652,2.47315,2.24299,8.75914,6.59043,0.0562605,51.8853
15266,22596.3,-0.819892,3.04801,2.4741,2.2525,8.76232,6.61788,0.00049243,51.9751
15308,22638.4,-0.390412,3.13726,2.47414,2.26033,8.76245,6.6415,0.03594761,51.9485
15350,22680.5,-0.750959,3.05724,2.47427,2.26739,8.76286,6.66281,-0.0300384,51.8486
15392,22722.7,0.521061,3.34162,2.47504,2.27167,8.76544,6.67597,0.0159425,51.8653
15434,22764.8,-1.60378,2.86888,2.47684,2.27455,8.77142,6.68449,-0.0446883,51.852
15476,22807,-0.000270769,3.22467,2.47811,2.2797,8.77561,6.69957,-0.006032324,51.9285
15519,22848.8,-0.000451223,3.22467,2.47948,2.28607,8.78015,6.71634,6.1512e-05,52.1946
15561,22891,-0.000270769,3.22344,2.4805,2.29131,8.78353,6.73146,6.15597e-05,52.0782
15603,22933.1,-1.95026,2.77501,2.48061,2.30115,8.78388,6.75967,-0.05638361,52.1681
15645,22975.3,-0.000451223,3.2219,2.48298,2.30667,8.7917,6.7749,-0.001908207,52.1548
15687,23017.5,-0.56058,3.08217,2.48307,2.31711,8.79201,6.80437,-0.0180969,52.1847
15729,23059.651,-1.19903,2.93505,2.4833,2.32493,8.79273,6.82759,-0.0140959,52.2613
15771,23101.8,-0.648642,3.0597,2.48361,2.33073,8.79376,6.8452,0.008740711,52.3811
15813,23143.9,-0.892796,2.99569,2.48361,2.33831,8.79376,6.86799,-0.0144652,52.4411
15855,23186.1,-0.333389,3.11264,2.484,2.35083,8.79504,6.90295,-0.016004,52.4578
15897,23228.2,-0.928706,2.98184,2.48477,2.35758,8.79759,6.92308,0.012434,52.5309
15939,23270.3,0.033835,3.19451,2.48482,2.36499,8.79775,6.94521,0.005663014,52.4278
15981,23312.5,-0.834329,3.0043,2.48516,2.36994,8.79888,6.96023,-0.000184631,52.4411
16023,23354.6,-1.15734,2.93536,2.48708,2.37231,8.80518,6.96716,0.02098999,52.6006
16065,23396.7,-1.17394,2.93105,2.48828,2.37707,8.80909,6.98111,-0.0190818,52.361
16107,23438.9,0.186138,3.23328,2.49004,2.38487,8.81491,7.0017,-0.0109566,52.4175
16150,23480.9,0.335554,3.25944,2.49034,2.39011,8.81586,7.01667,0.0433341,52.2678
16192,23523.1,-0.191552,3.13572,2.49116,2.39844,8.81855,7.04012,-0.0110797,52.2046
16234,23565.3,0.132002,3.21636,2.49287,2.40548,8.82411,7.05962,-0.01545,52.1281
16276,23607.5,-1.41413,2.85042,2.4936,2.41438,8.82652,7.0842,0.0152039,52.1547
16318,23649.6,-1.02832,2.92951,2.49391,2.42147,8.82753,7.10492,-0.044873,51.8853
16360,23691.8,-0.301087,3.07694,2.49419,2.4283,8.82843,7.12518,-0.0144037,51.8987
16402,23733.9,-0.97779,2.91043,2.49422,2.43411,8.82853,7.14249,-0.0272685,51.8521
16444,23776.1,-2.11573,2.6042,2.4946,2.44638,8.82972,7.17592,-0.11923,51.586
16486,23818.2,-0.957037,2.84765,2.49538,2.45371,8.83221,7.19657,-0.00701714,51.7891
16528,23860.4,-0.537662,2.90058,2.49538,2.46213,8.83221,7.22046,-0.009171533,51.7426
16570,23902.6,-0.816644,2.82118,2.49577,2.46714,8.83344,7.23467,-0.00510898,51.5962
16612,23944.8,-0.000451223,3.012,2.49769,2.46924,8.8394,7.24062,-6.15597e-05,51.6827
16654,23987,0.078768,2.99292,2.4985,2.47506,8.84185,7.25642,0.0778044,51.6363
16697,24331.7,1.0996,3.22036,2.50088,2.48305,8.84936,7.27587,0.001600409,51.616
16739,24541.8,1.0996,3.4755,2.56505,2.48305,9.06639,7.27587,0.000123119,51.6124
16781,24751.9,1.0996,3.50135,2.62922,2.48305,9.29029,7.27587,0.0,51.9152
16823,24962,1.09942,3.53213,2.69339,2.48305,9.51597,7.27587,0.0,51.9819
16865,25172.1,1.0996,3.55429,2.75757,2.48305,9.74344,7.27587,6.15597e-05,52.4278
16907,25382.2,1.0996,3.56968,2.82174,2.48305,9.97199,7.27587,0.0,52.3709
16949,25592.3,1.0996,3.57553,2.8859,2.48305,10.2013,7.27587,-6.15597e-05,52.5872
16991,25802.3,1.0996,3.57922,2.95005,2.48305,10.4308,7.27587,0.0,52.7175
17033,26012.4,1.09942,3.58353,3.01422,2.48305,10.6606,7.27587,0.0,52.3414
17075,26222.6,1.09942,3.58845,3.07841,2.48305,10.8908,7.27587,6.15597e-05,52.4109
17117,26432.7,1.09942,3.59399,3.14258,2.48305,11.1212,7.27587,0.0,52.158
17159,26641.9,1.08714,3.60138,3.2064,2.48305,11.3508,7.27587,6.15597e-05,52.3743
17201,26852,1.06188,3.60107,3.26899,2.48305,11.5763,7.27587,0.0,52.3846
17243,27062.1,1.04239,3.60107,3.33042,2.48305,11.7975,7.27587,0.0,52.391
17285,27272.2,1.0146,3.60107,3.39052,2.48305,12.0139,7.27587,0.0,52.1747
17327,27482.3,0.959744,3.60107,3.44836,2.48305,12.2222,7.27587,0.0,52.0883
17369,27692.4,0.792644,3.60107,3.50054,2.48305,12.4101,7.27587,0.0,51.8353
17411,27902.5,0.364968,3.60138,3.5349,2.48305,12.5338,7.27587,6.15597e-05,51.862
17453,28112.5,0.129656,3.60107,3.54784,2.48305,12.5804,7.27587,0.0,51.8723
17495,28322.7,0.0655949,3.60107,3.5532,2.48305,12.5997,7.27587,0.0,52.0517
17561,28537.7,-0.613994,3.36809,3.55433,2.48569,12.6038,7.28417,0.0475813,52.0184
17603,28579.9,-0.215011,3.39979,3.5558,2.49392,12.6092,7.30993,0.0156963,51.9718
17645,28622.2,-1.33527,3.1071,3.55602,2.5019,12.6099,7.33548,-0.007878924,52.1016
17687,28664.3,-0.000451223,3.42102,3.55863,2.50264,12.6198,7.33783,-6.15597e-05,52.0851
17729,28706.5,-3.84953,2.4577,3.56003,2.51547,12.6248,7.37367,-0.002462149,52.0519
17771,28748.7,-2.03687,2.87873,3.56003,2.54118,12.6248,7.44415,0.0214209,52.0054
17813,28790.8,-1.9831,2.88735,3.56012,2.55722,12.6252,7.49018,0.028992,51.9456
17855,28833,1.71982,3.73741,3.5653,2.56185,12.6436,7.50419,0.0547216,51.8992
17897,28875.1,-1.69618,2.95721,3.56649,2.5712,12.6478,7.53087,-0.003570175,51.8393
17939,28917.3,-2.23664,2.84426,3.56979,2.57685,12.6598,7.54818,-0.0555218,51.8693
17981,28959.4,-1.01388,3.1231,3.57188,2.5834,12.6674,7.56596,-0.0446883,51.7394
18023,29001.6,-0.228906,3.28653,3.5719,2.59748,12.6675,7.6059,0.0163734,51.8591
18065,29043.7,-0.370743,3.25452,3.57506,2.60351,12.6789,7.624532,0.00640163,51.8024
18107,29085.9,-1.06242,3.10341,3.5764,2.60725,12.6837,7.63597,0.0497357,51.8788
18149,29128.1,-0.000270769,3.34254,3.57807,2.61311,12.6898,7.6543,-0.0688791,51.8821
18191,29170.2,-1.30134,3.04493,3.57807,2.6185,12.6898,7.67046,0.008186674,51.8255
18233,29212.4,-0.984466,3.12095,3.57966,2.62191,12.6954,7.68115,0.014219,51.6657
18275,29254.6,-0.779832,3.15727,3.58082,2.63175,12.6995,7.71066,0.0378558,51.6823
18317,29296.7,-0.282862,3.26745,3.58258,2.64013,12.7057,7.73574,0.0400102,51.9351
18359,29338.9,0.00947374,3.337,3.58293,2.64655,12.7069,7.75542,0.0208669,52.025
18401,29381,-0.721725,3.17758,3.58467,2.6524,12.7129,7.77367,-0.04567318,51.8653
18443,29423.3,-0.239011,3.28376,3.58488,2.65756,12.7136,7.78998,0.006032324,51.852
18485,29465.4,-0.000270769,3.3407,3.58691,2.66174,12.7208,7.8032,-0.0445652,51.8087
18527,29507.5,-0.526294,3.21882,3.58759,2.67018,12.7231,7.82834,-0.0206822,52.1514
18569,29549.7,-0.000451223,3.33977,3.58888,2.67207,12.7277,7.83428,6.15597e-05,52.035
18611,29591.9,1.05737,3.57029,3.59019,2.67932,12.7323,7.85585,0.0293613,52.0517
18653,29634.1,-0.224214,3.27945,3.59067,2.68547,12.734,7.87462,0.0434572,52.0084
18695,29676.3,-0.000451223,3.33854,3.5922,2.68768,12.7393,7.88167,-6.15597e-05,52.0251
18737,29718.5,-0.379765,3.25052,3.59346,2.69432,12.7438,7.90097,-0.0185894,52.1017
18779,29760.6,-0.000451223,3.33762,3.59431,2.69811,12.7468,7.91277,6.15597e-05,52.0452
18821,29802.8,-0.716131,3.17265,3.59438,2.70542,12.747,7.93505,-0.0100949,51.8723
18863,29845.1,-0.000451223,3.33762,3.59669,2.70864,12.7554,7.94453,0.0,52.0187
18906,29886.6,-0.000451223,3.337,3.59758,2.71334,12.7584,7.95853,6.15597e-05,51.9587
18948,29928.7,-1.93961,2.90182,3.59828,2.71873,12.7609,7.97464,-0.0664785,51.972
18990,29970.9,-0.867352,3.1348,3.5991,2.72807,12.7637,8.00282,0.0413028,52.1316
19032,30013,-0.000451223,3.3367,3.6019,2.73293,12.774,8.01798,0.0,52.0384
19074,30055.1,-2.71935,2.70884,3.6019,2.73755,12.774,8.03082,0.000677109,52.0816
19116,30097.3,-0.988978,3.09417,3.6033,2.75663,12.779,8.0817,0.000307798,52.1514
19158,30139.5,-0.672642,3.16404,3.60335,2.77739,12.7792,8.14023,-0.009602452,51.8819
19200,30181.7,-1.12053,3.07017,3.60415,2.79133,12.7819,8.17969,-0.005601406,51.8653
19242,30223.9,-0.000270769,3.33639,3.60977,2.79208,12.8019,8.18203,-6.15597e-05,51.8919
19284,30266,0.0484518,3.32808,3.60977,2.80566,12.8019,8.22156,0.0507822,51.7689
19326,30308.2,1.17448,3.58722,3.6148,2.81337,12.8201,8.24268,-0.0246832,51.8687
19368,30350.3,-0.750237,3.14619,3.61517,2.82433,12.8214,8.27252,0.0305924,51.9387
19410,30392.5,-9.03152e-05,3.33239,3.61835,2.82778,12.8329,8.28345,6.15597e-05,51.8756
19452,30434.6,-0.000451223,3.32931,3.6197,2.83488,12.8377,8.30541,-0.0453654,52.0054
19494,30476.8,-0.701515,3.17296,3.61975,2.8388,12.8379,8.3174,-0.0220364,51.8559
19536,30518.9,-0.000270769,3.32992,3.62139,2.8433,12.8438,8.33128,0.000123119,51.7063
19578,30561.1,-0.000270769,3.32808,3.62297,2.85013,12.8494,8.35195,-0.0262836,51.63
19620,30603.3,1.07217,3.55952,3.62354,2.85548,12.8514,8.36832,0.030654,51.5568
19662,30645.5,-0.000451223,3.325,3.62588,2.86287,12.8596,8.39034,-0.0282533,51.6465
19704,30687.6,-1.90568,2.88889,3.62594,2.87331,12.8598,8.42141,-0.0376711,51.7362
19746,30729.8,-0.979955,3.10402,3.62746,2.87817,12.8651,8.43639,0.002831507,51.7559
19788,30771.9,0.0778658,3.33116,3.62804,2.88551,12.867,8.45917,0.0151423,51.6827
19830,30814,0.024271,3.31823,3.62861,2.89012,12.869,8.47371,0.0235752,51.8922
19872,30856.2,-2.573,2.72762,3.6302,2.89759,12.8745,8.49586,-0.0547832,51.9088
19914,30898.3,0.13128,3.341,3.63113,2.90227,12.8777,8.51031,0.004678154,51.6625
19956,30940.4,-1.89576,2.89381,3.63217,2.90349,12.8814,8.51398,-0.0465349,51.6791
19998,30982.6,-0.000451223,3.31423,3.63395,2.90969,12.8876,8.53224,6.15597e-05,51.6957
20040,31024.8,0.126769,3.33331,3.63399,2.91789,12.8877,8.55733,0.004985857,51.5658
20082,31066.9,0.691409,3.4598,3.63661,2.92258,12.8969,8.57049,-0.0211746,51.6423
20124,31109.1,-0.0392488,3.29515,3.63676,2.92776,12.8974,8.58636,0.0201282,51.7022
20166,31151.3,-0.000451223,3.30715,3.63759,2.92964,12.9003,8.59236,0.000246191,51.6889
20208,31193.5,0.838118,3.49181,3.63997,2.93885,12.9088,8.61963,-0.0270838,51.6756
20250,31235.7,0.0823771,3.31669,3.64002,2.94355,12.909,8.6335,0.0155117,51.7954
20293,31277.7,-0.925999,3.10494,3.64089,2.94357,12.912,8.63357,-0.040441,51.7255
20335,31319.8,-0.511677,3.18496,3.64233,2.95387,12.917,8.6638,0.0424108,51.7422
20377,31362,0.135972,3.32685,3.64249,2.9611,12.9175,8.68613,0.0387176,51.6125
20419,31404.1,-9.03152e-05,3.30561,3.64518,2.96314,12.9273,8.6924,-6.15597e-05,51.6125
20461,31446.3,-0.652612,3.15757,3.64659,2.97078,12.9323,8.71399,-0.03336234,51.6591
20503,31488.5,-0.721364,3.12433,3.64659,2.99806,12.9323,8.78595,0.0436419,51.7357
20545,31530.6,0.204183,3.32746,3.64664,3.01356,12.9325,8.8307,0.0725108,51.6925
20587,31572.9,0.453029,3.40317,3.65073,3.02224,12.9468,8.85484,-0.02246728,51.8856
20629,31615.1,-2.28067,2.78148,3.65304,3.02857,12.9549,8.87257,-0.0302846,51.8423
20671,31657.2,-0.000451223,3.30253,3.65634,3.03593,12.9667,8.89429,-0.000123119,51.7957
20713,31699.4,-0.000451223,3.30069,3.65843,3.04362,12.9743,8.91518,0.0,51.719
20755,31741.5,-1.06675,3.05724,3.65845,3.05738,12.9743,8.95345,-0.01249547,51.7023
20797,31783.7,-1.21346,3.02523,3.66161,3.06276,12.9856,8.96986,-0.002708387,51.7589
20839,31825.8,-1.0137,3.07909,3.66295,3.06521,12.9904,8.97753,-0.044319,51.8753
20881,31868,-1.00901,3.06986,3.66301,3.07337,12.9906,9.00237,0.0429032,51.9152
20923,31910.1,-1.92986,2.86704,3.66464,3.07614,12.9964,9.01066,-0.0160041,51.852
20965,31952.3,-0.604611,3.16711,3.66623,3.08062,13.002,9.02412,-0.0265914,51.7621
21007,31994.4,-2.09552,2.82487,3.66739,3.08949,13.006,9.05063,-0.0130495,51.8753
21049,32036.7,-1.62309,2.92828,3.66915,3.09907,13.0122,9.07865,-0.002031279,51.8853
21091,32078.9,0.453029,3.39117,3.66936,3.10648,13.0129,9.10104,0.0353937,51.9718
21133,32121,0.199853,3.33577,3.67088,3.11249,13.0181,9.11959,0.0354552,51.9387
21175,32163.2,-0.243884,3.24129,3.67143,3.11744,13.0199,9.13504,0.00701718,51.9787
21217,32205.3,0.472338,3.39733,3.67208,3.12212,13.0221,9.14968,0.0645703,51.8591
21259,32247.4,-0.273117,3.23513,3.67415,3.12962,13.0293,9.17152,-0.0566298,51.9889
21301,32289.6,-0.000451223,3.29915,3.67543,3.1325,13.0338,9.1805,6.15597e-05,51.8559
21343,32331.7,0.268064,3.34747,3.67552,3.13977,13.0341,9.2018,0.006032324,51.7063
21385,32373.9,-0.604611,3.15819,3.67722,3.14426,13.04,9.21527,-0.004185724,51.6465
21427,32416,-0.000451223,3.29822,3.67875,3.14811,13.0453,9.22727,-6.15597e-05,51.7961
21469,32458.2,-1.74923,2.90889,3.68,3.15367,13.0497,9.24303,-0.0496742,51.8724
21511,32500.4,-0.000451223,3.29669,3.68087,3.15852,13.0527,9.25792,0.0,51.7426
21553,32542.5,-0.336637,3.21636,3.68093,3.16482,13.0529,9.27673,6.15597e-05,51.7891
21595,32584.7,-0.000451223,3.29761,3.68325,3.16903,13.0612,9.28923,6.15597e-05,51.7923
21637,32626.9,-0.000270769,3.29638,3.68415,3.17372,13.0643,9.303,0.0,51.6625
21680,32668.7,0.691409,3.44503,3.68468,3.17826,13.0661,9.31625,0.025545,51.709
21722,32710.9,-0.892074,3.09417,3.68567,3.18631,13.0695,9.34032,0.01169529,51.5626
21764,32753,-0.000270769,3.29761,3.68845,3.19329,13.0796,9.36167,-0.0526904,51.7689
21806,32795.3,-1.39337,2.99076,3.68845,3.19383,13.0796,9.36331,-0.0615541,51.7855
21848,32837.4,-0.618686,3.13203,3.68986,3.2156,13.0845,9.42019,0.0850678,51.6856
21890,32879.6,-0.809246,3.08925,3.68986,3.23696,13.0845,9.47977,0.0330545,51.7754
21932,32921.7,0.647559,3.41579,3.69055,3.25044,13.0869,9.51738,0.082421,51.7921
21974,32963.9,-0.000270769,3.29853,3.69631,3.25249,13.1071,9.52363,0.0,51.7921
22016,33006,-0.633483,3.13972,3.69631,3.26494,13.1071,9.55913,0.000246191,51.8253
22058,33048.2,0.0726326,3.29453,3.69963,3.27378,13.119,9.5835,0.0172351,51.8719
22100,33090.4,-1.39319,2.96522,3.70172,3.28263,13.1265,9.60675,0.117138,51.9319
22142,33132.6,-0.000270769,3.29361,3.7049,3.28823,13.1378,9.62386,-0.0451807,52.0217
22184,33174.8,0.599378,3.41548,3.70502,3.29532,13.1382,9.64551,0.0424108,51.9785
22226,33216.9,-0.111972,3.26283,3.70627,3.29885,13.1426,9.6561,-0.00609388,51.9352
22268,33259.1,-0.000451223,3.29053,3.70791,3.30375,13.1485,9.67109,6.15597e-05,51.9519
22310,33301.3,1.08137,3.52197,3.70845,3.31058,13.1504,9.69148,0.042657,52.1316
22352,33343.4,-0.984286,3.06678,3.70952,3.31545,13.1541,9.70621,-0.0291151,52.0752
22394,33385.6,0.974722,3.49704,3.71151,3.3233,13.161,9.72939,0.0150192,52.3846
22436,33427.7,-0.404668,3.18927,3.71248,3.33172,13.1644,9.75417,6.15597e-05,52.4877
22478,33469.8,0.506444,3.39517,3.71389,3.33743,13.1692,9.77126,-0.0179738,52.4877
22520,33512,-0.283042,3.21266,3.7145,3.34571,13.1712,9.7966,0.0177892,52.3379
22562,33554.2,-0.565091,3.15326,3.71515,3.3496,13.1734,9.80874,0.0273916,52.4975
22604,33596.3,-1.19921,3.00923,3.71673,3.35545,13.1789,9.82618,0.0598922,52.4077
22646,33638.5,0.126769,3.29822,3.71745,3.36271,13.1814,9.84791,0.0288689,52.3743
22688,33680.7,-0.000451223,3.27883,3.7187,3.36272,13.1857,9.84792,0.0,52.3144
22730,33722.8,-0.0585574,3.26191,3.72048,3.37011,13.1918,9.86951,0.006770945,52.3842
22772,33764.9,-0.243703,3.20959,3.72048,3.37804,13.1918,9.8934,0.0129879,52.3343
22814,33807,-0.901457,3.06124,3.72202,3.38285,13.1971,9.90682,0.0964553,52.2146
22856,33849.2,0.0289628,3.26775,3.72328,3.38763,13.2015,9.92121,0.0132957,52.3144
22898,33891.4,-0.438774,3.17142,3.72413,3.38936,13.2044,9.92668,-0.004185724,52.3543
22940,33933.6,-0.287734,3.19204,3.72443,3.39926,13.2054,9.95573,0.104827,52.381
22982,33975.7,-0.682026,3.10648,3.72652,3.40248,13.2129,9.96504,0.0328084,52.3046
23025,34017.6,-0.000451223,3.26529,3.72742,3.40394,13.2159,9.96935,6.15597e-05,52.155
23067,34059.8,-2.10039,2.79317,3.72885,3.41178,13.2208,9.99209,-0.110674,52.1817
23109,34102,-0.8525545,3.06647,3.729,3.42024,13.2213,10.0174,-0.0400102,52.1353
23151,34144.2,-0.000451223,3.26098,3.73171,3.42352,13.2311,10.0274,6.15597e-05,52.1919
23193,34186.4,1.3544,3.54752,3.73221,3.43075,13.2328,10.0474,0.151362,52.0857
23235,34228.6,-3.84971,2.32967,3.73312,3.455,13.236,10.1102,-0.073865,52.0393
23277,34270.7,-1.02832,3.00738,3.73316,3.47143,13.2361,10.1563,-0.0403795,52.1423
23319,34312.9,1.46664,3.56629,3.73559,3.4826,13.2443,10.1867,0.0270838,51.9692
23361,34355.1,-2.71953,2.63375,3.73957,3.48507,13.2582,10.1937,-0.0525672,51.7661
23403,34397.2,-0.000270769,3.24775,3.74287,3.49627,13.2699,10.2254,-0.0445652,51.9157
23445,34439.4,-0.000451223,3.24221,3.74498,3.50396,13.2773,10.2458,6.15597e-05,51.9622
23487,34481.5,-0.609303,3.09294,3.74499,3.51658,13.2773,10.2798,-6.15597e-05,51.8922
23529,34523.7,-1.57419,2.88766,3.74814,3.52084,13.2884,10.2927,-0.0265298,52.0418
23571,34565.9,-0.000270769,3.2379,3.74948,3.52548,13.2931,10.3066,0.0,51.8821
23613,34608.1,-0.311915,3.16034,3.74953,3.53178,13.2932,10.3255,0.018774,51.7523
23655,34650.2,-0.789937,3.06309,3.75116,3.53421,13.299,10.3327,-0.034655,51.7988
23697,34692.4,-0.000451223,3.2339,3.75274,3.54074,13.3044,10.3518,6.15597e-05,51.7855
23739,34734.5,-1.6036,2.87504,3.7539,3.54703,13.3084,10.3704,-0.0345934,51.9651
23781,34776.7,-1.25713,2.94367,3.75566,3.55655,13.3144,10.3977,0.0479506,52.2578
23823,34818.8,-0.385359,3.1308,3.75576,3.5666,13.3147,10.4268,0.000738668,52.5239
23865,34861,-1.31073,2.92705,3.75724,3.5721,13.3197,10.4434,-0.0303462,52.3343
23907,34903.2,0.135791,3.2456,3.75791,3.57748,13.3218,10.4597,0.0188972,52.321
23949,34945.3,-0.360457,3.13634,3.75842,3.58168,13.3235,10.4726,0.000553989,52.4707
23991,34987.5,0.126588,3.2379,3.76013,3.58997,13.3294,10.4962,0.002462149,52.341
24033,35029.7,-0.000451223,3.21913,3.76194,3.59288,13.3355,10.5051,0.0,52.4009
24075,35071.9,-1.05232,2.9723,3.76194,3.59955,13.3355,10.524,0.02006669,52.4175
24117,35114,-1.91507,2.78425,3.76373,3.60304,13.3415,10.5342,-0.0431494,52.3743
24159,35156.2,-0.000451223,3.21389,3.76526,3.60849,13.3467,10.5505,0.0,52.4342
24201,35198.4,-0.000270769,3.2102,3.7665,3.61315,13.351,10.5632,6.15597e-05,52.5108
24243,35240.6,0.701514,3.3607,3.76736,3.61887,13.3538,10.5802,-0.003693247,52.3811
24285,35282.7,-0.355765,3.11541,3.76737,3.62479,13.3539,10.5973,0.0292998,52.5574
24327,35324.9,-0.000270769,3.20435,3.76975,3.62938,13.3622,10.6105,0.0,52.5309
24369,35367,-0.000451223,3.20158,3.77064,3.63406,13.3651,10.6239,-0.01188,52.4877
24412,35408.7,0.0825576,3.20774,3.77064,3.6386,13.3651,10.6367,0.059092,52.4578
24454,35450.8,0.126769,3.2182,3.77212,3.64575,13.3701,10.6573,0.0493664,52.471
24496,35493.1,1.88583,3.61184,3.77317,3.65363,13.3738,10.6806,0.093193,52.3811
24538,35535.2,-0.000451223,3.20097,3.77495,3.65363,13.3801,10.6806,6.15597e-05,52.2314
24580,35577.4,-3.68821,2.30843,3.77635,3.67196,13.3849,10.7269,-0.0406257,52.0683
24622,35619.6,-1.55001,2.8101,3.77635,3.69493,13.3849,10.7874,0.000984859,52.0816
24664,35661.7,0.457721,3.23667,3.77651,3.71001,13.3854,10.8279,0.0671556,51.9053
24706,35703.9,0.823501,3.35701,3.78253,3.71282,13.4057,10.8361,0.0294229,52.0782
24748,35746,-0.867352,2.93659,3.7828,3.72362,13.4065,10.8651,0.007878924,51.9118
24790,35788.3,-2.73415,2.49371,3.78611,3.73245,13.4179,10.8884,0.03305459,51.8653
24832,35830.5,-3.84935,2.20041,3.7882,3.73854,13.425,10.9039,-0.0587226,51.8187
24874,35872.7,1.53954,3.41949,3.78983,3.74855,13.4305,10.9303,0.0140959,51.7455
24916,35914.9,0.0726326,3.06401,3.79139,3.75541,13.4357,10.9497,0.0523826,51.7621
24958,35957.1,-0.0148875,3.04093,3.79272,3.75887,13.4401,10.9593,0.0259143,51.7921
25000,35999.2,-0.000270769,3.03354,3.79441,3.76406,13.4457,10.9739,6.1512e-05,51.6323
25042,36041.5,-0.633483,2.8498,3.79441,3.77059,13.4457,10.9915,-0.003877878,51.6789
25084,36083.6,-1.14543,2.72946,3.79599,3.77431,13.4508,11.0017,-0.04302635,51.8287
25126,36125.8,-0.111791,2.89689,3.79716,3.78359,13.4545,11.0262,0.0145268,51.8154
25168,36168,0.199853,2.91567,3.79893,3.79152,13.46,11.0464,0.02733,51.6424
25210,36210.1,0.135972,2.84796,3.79937,3.79776,13.4613,11.0625,0.0126186,51.4095
25252,36252.3,-0.774959,2.56173,3.80099,3.80495,13.466,11.0809,0.0162503,51.6758
25294,36294.5,-0.277628,2.63005,3.80164,3.80858,13.4678,11.0902,-0.0370556,51.6792
25336,36336.7,-0.935563,2.426,3.80323,3.81286,13.4723,11.1007,-0.0431494,51.7691
25340,36339.6,-0.000631677,2.5525,3.80323,3.81426,13.4723,11.1037,0.0,51.8423