File: Battery Data/RAW/A123_13.csv
,Test_Time(s),Current(A),Voltage(V),Charge_Capacity(Ah),Discharge_Capacity(Ah),Charge_Energy(Wh),Discharge_Energy(Wh),dV/dt(V/s),Temperature (C)_1
1,8.00294,-1.09937,2.57619,0.0,0.00152699,0.0,0.003963662,-0.004062653,36.8932
66,332.231,1.09994,3.31547,0.0550498,0.008873987,0.173081,0.0217946,0.000615597,37.5794
107,537.426,1.10013,3.42103,0.117752,0.008873987,0.385552,0.0217946,6.15597e-05,38.1005
148,742.623,1.10013,3.44565,0.180455,0.008873987,0.600784,0.0217946,6.15597e-05,38.7591
189,947.806,1.09994,3.47212,0.243154,0.008873987,0.817701,0.0217946,0.0,39.1352
230,1153,1.09994,3.4909,0.305856,0.008873987,1.03604,0.0217946,6.15597e-05,39.8369
271,1358.2,1.10013,3.50229,0.368559,0.008873987,1.25535,0.0217946,0.0,40.055
312,1563.41,1.09994,3.50629,0.431268,0.008873987,1.4751,0.0217946,6.15597e-05,40.6924
353,1768.63,1.10013,3.51029,0.493978,0.008873987,1.69511,0.0217946,0.0,41.2287
394,1973.84,1.09994,3.51521,0.556684,0.008873987,1.91538,0.0217946,0.0,41.3427
435,2179.04,1.10013,3.52075,0.619386,0.008873987,2.13596,0.0217946,0.0,41.4232
476,2384.23,1.09994,3.52721,0.682087,0.008873987,2.3569,0.0217946,6.15597e-05,41.973
517,2589.43,1.09994,3.53491,0.744786,0.008873987,2.5783,0.0217946,0.0,42.1239
558,2794.6,1.09994,3.54199,0.807481,0.008873987,2.80017,0.0217946,0.0,41.9559
599,2999.84,1.09994,3.54907,0.870197,0.008873987,3.02253,0.0217946,0.0,42.0129
640,3205.03,1.09994,3.5623,0.932896,0.008873987,3.24541,0.0217946,6.15597e-05,41.9761
681,3409.02,0.996447,3.60016,0.994738,0.008873987,3.46682,0.0217946,-6.1512e-05,42.2708
722,3614.19,0.380736,3.59985,1.03239,0.008873987,3.60239,0.0217946,0.0,42.3042
763,3819.38,0.166797,3.60047,1.04674,0.008873987,3.65404,0.0217946,6.1512e-05,42.0129
804,4024.57,0.0959844,3.60016,1.05393,0.008873987,3.67993,0.0217946,0.0,41.7482
845,4229.77,0.064241,3.60016,1.0584,0.008873987,3.69602,0.0217946,0.0,41.5706
910,4462.28,-0.480845,3.46751,1.05991,0.009414478,3.70146,0.0236728,-0.001908207,41.7616
951,4503.48,0.481226,3.53829,1.06061,0.0158135,3.70394,0.0452895,0.00141578,41.6443
992,4544.66,-0.480657,3.36471,1.06098,0.0188082,3.70525,0.0554097,-0.000553989,41.5706
1033,4585.85,-0.480657,3.33301,1.06206,0.02483253,3.709,0.075334,-0.00049243,41.6008
1074,4627.05,0.481226,3.45643,1.0627,0.0312894,3.71123,0.0965157,0.000738668,41.6041
1115,4668.26,-0.480657,3.30162,1.06313,0.0342333,3.7127,0.106253,-0.000246191,41.5304
1156,4709.48,-2.40574,2.9526,1.06313,0.0575208,3.7127,0.174106,-0.000246191,41.6511
1197,4750.74,-0.962256,3.18435,1.06526,0.068305,3.72012,0.207725,-6.15597e-05,41.755
1238,4791.97,0.000190588,3.34778,1.06955,0.069234,3.7357,0.210683,-6.1512e-05,41.7248
1280,4832.38,-0.480845,3.27084,1.06955,0.07099219,3.73571,0.216438,-0.000123119,41.574
1321,4873.59,2.75712e-06,3.34409,1.07062,0.0761855,3.73934,0.233167,0.000123119,41.4701
1362,4914.83,-0.962068,3.18897,1.07062,0.0814199,3.73935,0.250118,-0.000184631,41.7482
1403,4956.04,-0.480657,3.26345,1.07169,0.0864367,3.743,0.266409,-6.1512e-05,41.7448
1444,4997.26,2.75712e-06,3.33978,1.07276,0.0916601,3.74666,0.283209,6.15597e-05,41.5807
1485,5038.5,-0.480845,3.26222,1.07276,0.0958392,3.74666,0.29685,0.0,41.6376
1526,5079.71,0.962825,3.46443,1.07396,0.121061,3.75082,0.369483,0.00135417,41.5974
1567,5120.96,1.9249,3.62878,1.07797,0.129605,3.7652,0.396613,0.001046467,41.4232
1608,5162.18,0.000190588,3.33824,1.07918,0.129605,3.76957,0.396613,0.0,41.4701
1650,5202.4,-0.480657,3.26007,1.07918,0.132563,3.76957,0.406263,-6.15597e-05,41.6511
1691,5243.6,0.000190588,3.33639,1.08025,0.136549,3.77321,0.419012,-6.15597e-05,41.7885
1732,5284.84,0.481226,3.40503,1.08086,0.142956,3.77531,0.43965,0.000553989,41.7183
1773,5326.04,-0.480657,3.25637,1.08132,0.148005,3.77685,0.456098,6.15597e-05,41.8993
1814,5367.27,2.75712e-06,3.33486,1.08239,0.152034,3.78049,0.468973,6.15597e-05,41.7554
1855,5408.48,-3.84922,2.72731,1.08239,0.161388,3.78049,0.49707,-0.001662016,41.5644
1896,5449.7,-0.962068,3.16958,1.08452,0.182902,3.78788,0.5597,-6.1512e-05,41.5644
1937,5490.89,0.000190588,3.33362,1.08881,0.189984,3.80339,0.582147,0.0,41.655
1979,5531.24,0.000378419,3.33516,1.08881,0.189984,3.8034,0.582147,0.0,41.6887
2020,5572.47,-0.962256,3.18004,1.08881,0.194582,3.8034,0.59706,-0.000369358,41.7758
2061,5613.68,-0.480845,3.2573,1.08988,0.198052,3.80704,0.60818,-0.000184679,41.9063
2102,5654.91,-0.480657,3.25576,1.09095,0.204089,3.81067,0.627589,-0.000123119,41.9498
2143,5696.16,-0.962068,3.17727,1.09095,0.209989,3.81067,0.646727,-0.000369358,41.933
2184,5737.4,-0.480657,3.25606,1.09202,0.213502,3.81432,0.65797,-6.15597e-05,41.9632
2225,5778.64,-2.40555,2.93228,1.09202,0.229371,3.81432,0.703935,-0.000246239,41.7856
2266,5819.87,-0.962068,3.16342,1.09415,0.245721,3.82165,0.752731,6.1512e-05,41.7989
2307,5861.09,0.000190588,3.32962,1.09843,0.250357,3.83711,0.767394,6.15597e-05,41.8256
2349,5902.31,-0.480845,3.25945,1.09843,0.250363,3.83712,0.767414,-0.0145885,41.7653
2390,5943.52,0.481038,3.39456,1.0986,0.257295,3.83771,0.789724,0.0442582,41.8959
2431,5984.72,-0.480845,3.25268,1.0995,0.25976,3.84075,0.797747,-6.15597e-05,41.8623
2472,6025.97,-0.480845,3.25052,1.10057,0.265808,3.84438,0.817166,-6.1512e-05,41.9058
2513,6067.18,0.481226,3.39087,1.10069,0.27279,3.8448,0.839606,0.0440735,41.9192
2554,6108.41,-0.480845,3.25052,1.10163,0.275213,3.848,0.847488,-6.1512e-05,41.7683
2595,6149.62,-2.40574,2.92151,1.10163,0.296428,3.848,0.908574,-0.000246239,41.6175
2636,6190.84,-0.96188,3.15481,1.10377,0.308763,3.85534,0.94614,-6.15597e-05,41.7348
2677,6232.07,0.000378419,3.32285,1.10805,0.310742,3.87077,0.952382,0.000123119,41.6008
2719,6272.4,-0.480845,3.24899,1.10805,0.311965,3.87078,0.956359,-0.000123119,41.718
2760,6313.6,2.75712e-06,3.32101,1.10912,0.317691,3.87439,0.974699,-0.0145885,41.8353
2801,6354.83,-0.962068,3.16866,1.10912,0.321852,3.8744,0.988133,-0.00036931,42.1133
2842,6396.06,-0.480657,3.24129,1.11019,0.327411,3.87802,1.00599,-0.000123119,42.0062
2883,6437.29,0.000190588,3.31608,1.11126,0.333184,3.88164,1.02445,-0.0144655,41.9459
2924,6478.51,-0.480845,3.23914,1.11126,0.336825,3.88164,1.03625,-6.15597e-05,41.8119
2965,6519.74,0.962637,3.42442,1.11139,0.362593,3.8821,1.11,0.102612,41.8856
3006,6561,1.92508,3.58877,1.11433,0.371139,3.89235,1.13688,0.0889472,41.8689
3047,6602.25,0.000190588,3.30869,1.11768,0.371139,3.90438,1.13688,6.15597e-05,41.8689
3089,6643.44,-0.480657,3.23113,1.11768,0.373703,3.90438,1.14517,-6.1512e-05,41.8522
3130,6684.64,0.000190588,3.30654,1.11875,0.378088,3.90799,1.15909,6.15597e-05,41.9259
3171,6725.86,0.481226,3.37056,1.11896,0.384498,3.90871,1.17954,0.0442581,41.9259
3212,6767.09,-0.480657,3.22436,1.11982,0.389149,3.91159,1.19454,0.0,41.8656
3253,6808.28,2.75712e-06,3.30192,1.12089,0.393575,3.91521,1.20857,6.15597e-05,41.8823
3294,6849.53,-3.84922,2.70545,1.12089,0.399729,3.91521,1.22772,-0.103536,41.7683
3335,6890.73,-0.962068,3.14003,1.12302,0.423614,3.92252,1.2958,-0.0589083,41.45
3376,6931.98,0.000190588,3.30038,1.12728,0.431508,3.93778,1.32058,-0.000246239,41.6745
3418,6972.26,0.000378419,3.30069,1.12728,0.431508,3.93779,1.32058,0.0,41.6645
3459,7013.48,-0.962068,3.14804,1.12728,0.435308,3.9378,1.33282,-0.0147117,41.7416
3500,7054.7,-0.480845,3.22313,1.12835,0.439187,3.9414,1.34508,-0.000184679,41.8623
3541,7095.95,-0.480845,3.2219,1.12942,0.445231,3.94498,1.3643,-0.000369358,41.9528
3582,7137.19,-0.480657,3.21821,1.12942,0.450738,3.94498,1.38203,0.0,41.9429
3623,7178.43,-0.480845,3.22159,1.13049,0.454644,3.94858,1.39436,-0.000184631,42.02
3664,7219.64,-2.40574,2.90458,1.13049,0.468899,3.94858,1.43526,0.0438888,41.9463
3705,7260.89,-0.962068,3.1348,1.13262,0.486452,3.9559,1.48691,-6.15597e-05,41.933
3746,7302.11,0.000190588,3.29731,1.13691,0.491893,3.97127,1.50397,0.0,41.6817
3788,7342.34,0.000378419,3.29823,1.13691,0.491893,3.97128,1.50397,0.0,41.7421
3829,7383.58,-0.962068,3.14065,1.13691,0.498115,3.97128,1.52381,-0.000123072,41.5076
3870,7424.79,-0.480845,3.21882,1.13799,0.500771,3.97488,1.53231,-6.15597e-05,41.6248
3911,7466.04,-0.480845,3.21728,1.13905,0.506811,3.97847,1.5515,-6.15597e-05,41.8593
3952,7507.27,-0.962068,3.13849,1.13905,0.51352,3.97847,1.5729,-0.000184679,41.8895
3993,7548.5,-0.480845,3.2179,1.14012,0.516222,3.98207,1.58153,-6.15597e-05,41.9197
4034,7589.71,-2.40574,2.8972,1.14012,0.535313,3.98207,1.63602,-0.000184631,41.7554
4075,7630.91,-0.962068,3.13111,1.14225,0.549243,3.98934,1.67765,0.0,41.7252
4116,7672.13,0.000190588,3.29515,1.14652,0.552283,4.00463,1.68717,0.0,41.8558
4158,7712.38,-0.480845,3.22098,1.14652,0.552965,4.00464,1.68937,-0.000246191,41.7519
4199,7753.61,0.481226,3.36409,1.14737,0.559228,4.00749,1.70927,0.00043087,41.792
4240,7794.84,-0.480657,3.21575,1.14759,0.562373,4.00824,1.71939,-0.000123119,41.8657
4281,7836.05,-0.480657,3.21451,1.14866,0.568413,4.01183,1.73857,-6.15597e-05,41.8321
4322,7877.27,0.481038,3.36194,1.14947,0.574715,4.01453,1.75858,0.00043087,41.8153
4363,7918.53,-0.480845,3.21482,1.14973,0.577821,4.01544,1.76857,0.0,41.7114
4404,7959.74,-2.40574,2.8892,1.14973,0.601758,4.01544,1.8366,-0.000123119,41.7248
4445,8000.96,-0.96188,3.1268,1.15187,0.612059,4.02273,1.86825,6.15597e-05,41.5606
4486,8042.2,0.000378419,3.29331,1.15615,0.612677,4.03805,1.87018,6.15597e-05,41.4399
4528,8082.41,-0.480657,3.21667,1.15616,0.61456,4.03806,1.87624,-0.000123119,41.4701
4569,8123.61,0.000190588,3.29084,1.15722,0.619619,4.04164,1.89226,0.0,41.5003
4610,8164.82,-0.962068,3.13603,1.15722,0.625103,4.04164,1.90972,-0.000123119,41.6343
4651,8206.06,-0.480657,3.21205,1.15829,0.630001,4.04524,1.92539,0.0,41.6511
4692,8247.27,0.000190588,3.289,1.15936,0.63511,4.04882,1.94155,6.15597e-05,41.7416
4733,8288.51,-0.480845,3.21174,1.15936,0.639414,4.04882,1.95538,0.0,41.8153
4774,8329.71,0.962825,3.41241,1.16081,0.66449,4.05377,2.02622,0.00129266,41.8019
4815,8370.94,1.9249,3.57984,1.16506,0.673035,4.06883,2.05289,0.001107979,41.7718
4856,8412.16,0.000190588,3.29084,1.16579,0.673035,4.07144,2.05289,0.000123119,41.6679
4898,8452.5,-0.480657,3.21298,1.16579,0.676134,4.07144,2.06286,0.0,41.7114
4939,8493.72,-0.480845,3.21667,1.16686,0.68003,4.07504,2.07513,-0.0145885,41.755
4980,8534.95,0.481226,3.35855,1.16762,0.68638,4.07758,2.09528,0.00049243,41.6779
5021,8576.17,-0.480657,3.20867,1.16793,0.691573,4.07863,2.11195,-6.1512e-05,41.6611
5062,8617.38,-0.480845,3.21513,1.169,0.695469,4.08222,2.12421,-0.014527,41.6443
5103,8658.63,-3.84922,2.67621,1.169,0.705948,4.08222,2.15487,-0.0015389,41.6577
5144,8699.83,-0.962068,3.11664,1.17113,0.726595,4.08948,2.21421,-6.15597e-05,41.6276
5185,8741,0.000378419,3.28346,1.17541,0.733401,4.10472,2.23542,0.000123072,41.6108
5227,8781.31,0.000190588,3.28746,1.17541,0.733401,4.10473,2.23542,6.15597e-05,41.6678
5268,8822.52,-0.962068,3.13234,1.17541,0.738272,4.10473,2.25097,-0.000307798,41.326
5309,8863.76,-0.480657,3.21051,1.17648,0.741616,4.10831,2.26154,0.0,41.7382
5350,8904.98,-0.480657,3.20805,1.17755,0.747656,4.11189,2.28068,-0.000123119,41.7081
5391,8946.23,-0.962068,3.12895,1.17755,0.75369,4.11189,2.29994,-0.000246239,41.7818
5432,8987.45,-0.480845,3.20805,1.17861,0.757071,4.11546,2.31061,-0.000123119,41.7818
5473,9028.7,-2.40593,2.88027,1.17861,0.773502,4.11546,2.35737,-0.00043087,41.5908
5514,9069.93,-0.962068,3.10926,1.18074,0.789446,4.1227,2.40419,-6.15597e-05,41.3595
5555,9111.16,0.000190588,3.27638,1.18502,0.793818,4.13794,2.41779,6.15597e-05,41.4232
5597,9151.38,-0.480845,3.20774,1.18502,0.793824,4.13795,2.41781,-0.014527,41.5003
5638,9192.61,0.481226,3.34224,1.1852,0.800764,4.13853,2.43978,0.0442581,41.6209
5679,9233.84,-0.480657,3.20005,1.18609,0.803239,4.14152,2.44771,0.0,41.698
5720,9275.08,-0.480845,3.19697,1.18716,0.809287,4.14508,2.4668,-0.000123119,41.7316
5761,9316.29,0.481226,3.33609,1.18729,0.816259,4.14553,2.48883,0.0441966,41.8256
5802,9357.52,-0.480845,3.19451,1.18823,0.818693,4.14866,2.49661,-0.000123119,41.7687
5843,9398.72,-2.40574,2.86303,1.18823,0.839933,4.14866,2.55654,-0.000246239,41.8291
5884,9439.94,-0.962068,3.09602,1.19036,0.852253,4.15587,2.59334,-0.000123119,41.7554
5925,9481.15,0.000190588,3.26376,1.19462,0.854224,4.17101,2.59945,6.1512e-05,41.7119
5967,9521.41,-0.480845,3.18835,1.19463,0.85544,4.17101,2.60332,-0.000184631,41.5511
6008,9562.66,0.000190588,3.25945,1.1957,0.861174,4.17457,2.62134,-0.0145885,41.7758
6049,9603.88,-0.962068,3.10525,1.1957,0.865327,4.17458,2.63449,-0.000430918,41.9063
6090,9645.08,-0.480845,3.1782,1.19677,0.870886,4.17813,2.65199,-0.000123119,41.98
6131,9686.31,2.75712e-06,3.2536,1.19783,0.876657,4.18169,2.67008,-0.014527,41.9063
6172,9727.53,-0.480845,3.17573,1.19784,0.880293,4.18169,2.68164,-0.000184631,41.655
6213,9768.77,0.962637,3.36132,1.19796,0.906033,4.1821,2.75366,0.102859,41.8158
6254,9810.03,1.9249,3.52937,1.20088,0.914585,4.19209,2.78003,0.0893781,41.9028
6295,9851.24,0.000190588,3.25145,1.20424,0.914585,4.204,2.78003,6.15597e-05,41.9463
6337,9891.49,-0.480657,3.17297,1.20425,0.917012,4.204,2.78774,0.0,41.7954
6378,9932.69,0.000190588,3.24745,1.20531,0.92153,4.20754,2.80182,0.000123119,42.0433
6419,9973.9,0.481226,3.30869,1.20539,0.927938,4.20779,2.82188,0.0440119,41.9661
6460,10015.1,-0.480657,3.16465,1.20638,0.932453,4.21108,2.83618,0.0,41.9058
6501,10056.4,0.000190588,3.24314,1.20745,0.937021,4.21462,2.85038,0.000123119,41.9058
6542,10097.6,-3.84922,2.64913,1.20745,0.942105,4.21462,2.86634,-0.102736,41.9058
6583,10138.8,-0.962068,3.07325,1.20958,0.96683,4.22179,2.93489,-0.058539,41.9058
6624,10180,0.000190588,3.2376,1.21387,0.974976,4.23688,2.95989,-0.000738621,41.8756
6666,10220.3,2.75712e-06,3.23914,1.21387,0.974976,4.23689,2.95989,0.0,41.8588
6707,10261.5,-0.480845,3.15758,1.21387,0.978609,4.23689,2.97137,-0.000123119,41.8722
6748,10302.7,-0.480845,3.15942,1.21494,0.982502,4.24042,2.98342,-0.000246191,42.0899
6789,10343.9,-0.480657,3.15573,1.21601,0.988536,4.24396,3.00221,-0.0294849,42.3243
6830,10385.2,-0.480657,3.14927,1.21601,0.994042,4.24396,3.01956,0.0,42.1602
6871,10426.4,-0.480657,3.15358,1.21709,0.99794,4.24749,3.0316,-0.000307751,42.1602
6912,10467.7,-2.40574,2.82549,1.21709,1.01166,4.24749,3.06996,0.0433348,42.0698
6953,10508.9,-0.962068,3.05232,1.21922,1.02963,4.25462,3.12127,-6.15597e-05,42.1133
6994,10550.1,0.000190588,3.22098,1.22351,1.03536,4.26964,3.13877,6.15597e-05,42.2004
7036,10590.4,0.000190588,3.22344,1.22351,1.03536,4.26965,3.13877,6.15597e-05,41.9459
7077,10631.6,-0.962256,3.06001,1.22351,1.0413,4.26965,3.15728,-0.000369358,42.0497
7118,10672.8,-0.480657,3.13911,1.22458,1.04411,4.27317,3.166,-0.000184679,42.1067
7159,10714,-0.480657,3.13542,1.22565,1.05015,4.27668,3.18469,-0.000123119,42.1201
7200,10755.3,-0.962068,3.05232,1.22565,1.05671,4.27668,3.20509,-0.000307751,42.0464
7241,10796.5,-0.480845,3.13234,1.22671,1.05956,4.28017,3.21393,-0.000123119,42.09
7282,10837.7,-2.40574,2.79809,1.22671,1.07809,4.28017,3.26511,-0.000307798,41.9996
7323,10878.9,-0.962068,3.03046,1.22885,1.09245,4.28725,3.30647,-0.000123072,41.9996
7364,10920.2,0.000190588,3.20159,1.23314,1.09576,4.30222,3.31649,-6.15597e-05,42.0598
7406,10960.4,-0.480657,3.1268,1.23314,1.0963,4.30222,3.31821,-0.000307751,42.033
7447,11001.7,0.481226,3.2653,1.23385,1.10271,4.30453,3.33793,0.000615549,42.187
7488,11042.9,-0.480845,3.11572,1.23421,1.10572,4.30571,3.34732,-0.000123119,42.2339
7529,11084.1,-0.480657,3.11356,1.23528,1.11175,4.30919,3.36588,-6.15597e-05,42.0765
7570,11125.3,0.481226,3.26037,1.23594,1.1182,4.31135,3.38569,0.000677109,41.9929
7611,11166.5,-0.480657,3.11141,1.23635,1.12116,4.31269,3.39491,-6.1512e-05,41.8623
7652,11207.7,-2.40574,2.76393,1.23635,1.1445,4.31269,3.45858,-0.00049243,42.0868
7693,11248.9,-0.962068,3.0003,1.23849,1.15524,4.31971,3.49011,-0.000184679,42.1941
7734,11290.1,0.000190588,3.18066,1.24277,1.15614,4.33453,3.49283,0.0,42.1674
7776,11330.5,-0.480657,3.10002,1.24277,1.15789,4.33453,3.49826,-0.000307798,42.0502
7817,11371.7,2.75712e-06,3.16712,1.24384,1.16309,4.33798,3.51407,0.000123072,42.1709
7858,11412.9,-0.962068,2.99784,1.24384,1.16831,4.33798,3.53002,-0.000677109,42.3955
7899,11454.1,-0.480657,3.06432,1.2449,1.17333,4.34142,3.54536,-0.000184679,42.3955
7940,11495.3,0.000190588,3.1308,1.24598,1.17857,4.34486,3.56112,0.000123119,42.2916
7981,11536.6,-0.480657,3.03939,1.24598,1.18274,4.34486,3.57382,-0.000246191,42.3821
8022,11577.8,0.962637,3.14003,1.24716,1.20796,4.34855,3.63934,0.002708435,42.2215
8063,11619,1.92508,3.29115,1.25112,1.21651,4.36138,3.66353,0.003139305,42.3555
8104,11660.2,0.000190588,3.008,1.2524,1.21651,4.36563,3.66353,6.15597e-05,42.2818
8146,11700.5,-0.480845,2.91228,1.2524,1.21947,4.36563,3.67219,-0.00043087,42.0173
8187,11741.7,0.000378419,2.97507,1.25347,1.22346,4.36887,3.68349,0.000123119,42.4727
8228,11783,0.481226,3.0043,1.25409,1.22987,4.37071,3.70167,0.00129266,42.7371
8269,11824.2,-0.480657,2.81595,1.25454,1.23491,4.37208,3.71599,-0.000677109,42.5091
8310,11865.4,0.000190588,2.87319,1.25561,1.23895,4.37521,3.72703,0.000184679,42.4151
8351,11906.6,-3.84922,2.11175,1.25561,1.24827,4.37521,3.7501,-0.0130497,42.2609
8393,12390.3,1.09994,3.33208,1.31066,1.25199,4.55078,3.75776,0.00049243,42.2407
8434,12595.4,1.09994,3.41919,1.37335,1.25199,4.76354,3.75776,6.1512e-05,42.1401
8475,12800.7,1.09994,3.44504,1.43606,1.25199,4.9787,3.75776,0.000123072,41.5372
8516,13005.9,1.09994,3.4712,1.49876,1.25199,5.19558,3.75776,6.15597e-05,41.6683
8557,13211.1,1.09994,3.48905,1.56146,1.25199,5.41385,3.75776,-6.15597e-05,41.8361
8598,13416.3,1.09975,3.49982,1.62416,1.25199,5.63303,3.75776,-6.1512e-05,41.9197
8639,13621.5,1.09994,3.50382,1.68686,1.25199,5.8526,3.75776,0.0,41.8187
8680,13826.7,1.09994,3.50782,1.74956,1.25199,6.0724,3.75776,0.0,41.889
8721,14031.9,1.09994,3.51306,1.81227,1.25199,6.29254,3.75776,6.1512e-05,42.2339
8762,14237.2,1.09994,3.51829,1.87497,1.25199,6.513,3.75776,0.0,42.167
8803,14442.4,1.09994,3.52475,1.93769,1.25199,6.73384,3.75776,0.0,42.4885
8844,14647.6,1.10013,3.53337,2.00039,1.25199,6.95512,3.75776,6.15597e-05,42.6928
8885,14852.8,1.09994,3.53953,2.06309,1.25199,7.17687,3.75776,-6.15597e-05,42.7128
8926,15058,1.09994,3.5463,2.12578,1.25199,7.39898,3.75776,0.0,42.5793
8967,15263.2,1.09994,3.55953,2.18848,1.25199,7.62169,3.75776,0.0,42.4789
9008,15464.6,0.98574,3.60047,2.24947,1.25199,7.83998,3.75776,6.1512e-05,42.5358
9049,15669.8,0.33622,3.60016,2.28513,1.25199,7.96834,3.75776,0.0,42.522
9090,15875,0.138622,3.60016,2.29742,1.25199,8.01261,3.75776,0.0,42.5286
9131,16080.1,0.0783283,3.60047,2.30334,1.25199,8.03392,3.75776,6.1512e-05,42.4483
9196,16373.5,0.000190588,3.55984,2.30639,1.25199,8.0449,3.75776,-0.000184679,42.1368
9237,16414.8,0.000190588,3.49274,2.30742,1.25722,8.04853,3.77488,6.15597e-05,42.1703
9278,16456,-2.02275,3.08525,2.30752,1.26824,8.04889,3.81,-0.0166814,42.2607
9319,16497.2,0.000190588,3.40103,2.30989,1.27259,8.05707,3.82339,-0.000307798,42.2607
9360,16538.4,-0.560109,3.27484,2.30999,1.28301,8.05739,3.85585,-0.0124341,42.1301
9401,16579.6,-1.19836,3.16558,2.31021,1.29056,8.05814,3.87993,-0.0156966,41.9392
9442,16620.7,-0.382421,3.28746,2.31051,1.29651,8.05917,3.89916,-0.0142808,41.9392
9483,16661.8,-0.570065,3.25022,2.31052,1.30348,8.05919,3.92153,0.004986,41.8219
9524,16703,-0.828144,3.20128,2.31089,1.31623,8.06047,3.96065,0.0139115,41.7783
9565,16744,-0.590162,3.24221,2.31168,1.32228,8.06315,3.97994,0.01175704,41.6779
9606,16785.1,0.162101,3.35424,2.31171,1.33037,8.06324,4.00578,0.0315163,41.8019
9647,16826.2,-0.825515,3.20805,2.31208,1.33482,8.0645,4.02015,-0.0113261,41.8489
9688,16867.3,0.000190588,3.34255,2.31399,1.33633,8.07103,4.02501,0.0,41.8993
9729,16908.4,0.275927,3.37702,2.31488,1.34217,8.07403,4.04337,0.0160043,41.9899
9770,16949.6,0.0437674,3.33055,2.31567,1.35077,8.07668,4.06906,0.0505983,41.8726
9812,16990.7,-1.24964,3.13603,2.31703,1.35529,8.08135,4.083,-0.000615549,41.9632
9853,17031.8,-1.57534,3.08248,2.31804,1.36208,8.08477,4.10388,0.00670948,41.8326
9894,17072.9,0.333966,3.37794,2.31869,1.37137,8.08697,4.13241,0.004555082,42.1007
9935,17114,-1.28119,3.12649,2.32053,1.37651,8.093179,4.14764,0.0449353,41.8832
9976,17155.2,-2.34037,2.97291,2.32084,1.38337,8.09423,4.16935,-0.0510293,41.766
10017,17196.4,-0.586594,3.23667,2.32101,1.39178,8.09481,4.19604,0.0140961,41.9605
10058,17237.6,-0.0137089,3.32501,2.32115,1.39729,8.09528,4.21377,0.0389029,41.8868
10099,17278.7,-0.313863,3.27392,2.32133,1.40662,8.09589,4.24276,0.007632828,41.9738
10140,17319.9,-0.433699,3.25883,2.32226,1.41622,8.09906,4.2724,-0.0136652,41.9436
10181,17361.1,-0.390122,3.26314,2.32231,1.42386,8.0992,4.2967,-0.003139305,42.0608
10222,17402.3,-0.160217,3.30008,2.32244,1.43075,8.09964,4.31863,0.009602594,42.0439
10263,17443.4,0.166421,3.35394,2.323,1.43516,8.10154,4.33285,0.003631782,41.9835
10304,17484.6,-0.0895927,3.31824,2.325,1.4372,8.10836,4.33923,-0.0115724,42.1274
10345,17525.7,0.242305,3.36471,2.32617,1.44318,8.11228,4.35795,-0.00504751,42.1674
10386,17566.9,0.000190588,3.3287,2.32764,1.44956,8.1173,4.37666,6.1512e-05,42.0433
10428,17607.7,0.297715,3.37456,2.32855,1.4548,8.12036,4.3929,-0.007879066,41.9058
10469,17648.9,-0.244553,3.28469,2.32877,1.46323,8.12113,4.41879,-0.009048605,41.9459
10510,17690,0.604819,3.42134,2.33075,1.47017,8.12781,4.43989,0.0147117,41.765
10551,17731.1,-1.46207,3.0914,2.33115,1.4796,8.12916,4.4686,-0.0177894,41.6745
10592,17772.3,-0.107437,3.30069,2.33147,1.4862,8.13022,4.48946,0.0192667,41.6008
10633,17813.4,-0.300527,3.27268,2.33175,1.49296,8.13117,4.51102,-0.009787274,41.6309
10674,17854.5,-1.50565,3.08894,2.33178,1.49846,8.13127,4.52868,-0.02345252,41.7348
10715,17895.6,0.543774,3.39118,2.33216,1.51037,8.13255,4.56514,0.0733122,41.765
10756,17936.7,-0.82157,3.19051,2.332943,1.51744,8.13522,4.58724,-0.000246239,41.5874
10797,17977.8,-1.39183,3.09818,2.33294,1.52597,8.13522,4.6143,-0.0109568,41.6912
10838,18018.9,-0.180503,3.2893,2.33334,1.53098,8.13655,4.63027,-0.0298542,41.708
10879,18060,0.175437,3.35271,2.33519,1.53387,8.14283,4.63954,-0.0056015,41.6511
10920,18101.2,-0.0249788,3.31885,2.33606,1.53772,8.14575,4.65161,-0.001785135,41.7114
10961,18142.4,-1.67977,3.06063,2.33692,1.54329,8.14864,4.66892,-0.0154503,41.7114
11003,18182.6,-2.03872,3.0083,2.33828,1.54888,8.15327,4.68513,-0.0619245,41.8019
11044,18223.7,-1.37154,3.10772,2.33931,1.55448,8.15673,4.70246,-0.00726347,41.8623
11085,18264.8,-1.63206,3.04555,2.33941,1.56803,8.15709,4.74355,0.0243143,41.8924
11126,18305.87,0.000190588,3.3167,2.34179,1.56887,8.16507,4.74616,0.0,41.9528
11167,18347,-0.541702,3.22036,2.34191,1.57974,8.16549,4.77933,-0.0147117,42.0433
11208,18388.1,-0.77048,3.18158,2.34224,1.5877,8.16661,4.8043,0.004985952,42.0601
11249,18429.2,-0.557856,3.21451,2.34241,1.59343,8.16715,4.82257,-0.00547838,42.0601
11290,18470.3,-1.06293,3.12865,2.34241,1.60177,8.16715,4.84863,-0.00584774,41.9528
11331,18511.4,0.152334,3.31331,2.34283,1.61306,8.16855,4.88293,0.0153888,41.8321
11372,18552.5,-0.928446,3.14896,2.34357,1.6199,8.17105,4.90446,0.002708435,41.8287
11413,18593.6,-1.03157,3.13419,2.34361,1.62715,8.17121,4.92732,-0.0285615,41.7516
11454,18634.7,-0.102741,3.27669,2.34396,1.63191,8.17238,4.94248,0.0221598,41.8822
11495,18676,-1.64615,3.0477,2.34589,1.63346,8.17886,4.94736,-0.0421037,41.8655
11536,18717.2,0.00282022,3.29792,2.34709,1.63842,8.18287,4.96274,-0.002708435,41.8353
11577,18758.3,0.635811,3.38933,2.34828,1.64703,8.18688,4.98811,0.002216005,41.966
11619,18798.6,0.13881,3.31208,2.34908,1.65197,8.18957,5.00323,0.002031326,41.9358
11660,18839.7,-0.129413,3.26314,2.34994,1.6602,8.19245,5.02822,0.0403186,42.0396
11701,18880.9,0.280998,3.33547,2.351,1.66762,8.196,5.05065,-0.000923347,42.0095
11742,18921.9,-0.853877,3.15419,2.35242,1.6743,8.20075,5.07047,0.0156965,42.0095
11783,18963.1,-1.54209,3.05232,2.35274,1.68123,8.2018,5.0921,-0.00258532,41.9794
11824,19004.3,-0.955682,3.1428,2.35292,1.68864,8.20241,5.11546,-0.0305929,41.9358
11865,19045.4,-0.367583,3.2339,2.35305,1.69401,8.20284,5.13253,-0.005232191,42.0832
11906,19086.6,-0.621718,3.19051,2.35323,1.70356,8.20345,5.16189,-0.00634017,41.9794
11947,19127.7,-0.976155,3.13696,2.35416,1.71376,8.20659,5.193,-0.004185724,42.0095
11988,19168.9,-1.44592,3.06494,2.35421,1.7211,8.20673,5.21613,-0.0163121,41.8051
12029,19210.1,-0.351241,3.2339,2.35433,1.72762,8.20716,5.23663,0.009233284,41.718
12070,19251.2,0.178442,3.32039,2.35529,1.73136,8.21037,5.24857,-0.007632828,41.7046
12111,19292.4,-1.24889,3.09879,2.35691,1.73495,8.21583,5.25968,0.00301619,41.6779
12152,19333.5,0.000190588,3.29238,2.35819,1.73937,8.22008,5.27334,-0.00129266,41.8856
12194,19374.6,0.000190588,3.29331,2.35955,1.74576,8.22467,5.29184,0.000123072,41.755
12235,19415.8,0.000190588,3.29331,2.36058,1.75099,8.22811,5.30785,-0.000738668,41.8588
12276,19457,-1.0357,3.12803,2.36068,1.76,8.22846,5.33532,-0.0196361,41.755
12317,19498.1,0.0428282,3.30131,2.36305,1.76629,8.23637,5.3541,-0.00757127,41.8253
12358,19539.251,0.249818,3.31916,2.36313,1.77648,8.23663,5.38488,0.0293618,41.7046
12399,19580.4,-0.681261,3.1782,2.36337,1.78333,8.23744,5.40624,0.0254223,41.909
12440,19621.5,-0.575512,3.19636,2.36365,1.78972,8.23838,5.42646,-0.00584774,41.7448
12481,19662.6,-0.721269,3.17204,2.36368,1.79594,8.23847,5.44613,0.002092886,41.9358
12522,19703.8,-1.27067,3.07909,2.36406,1.80858,8.23975,5.48423,0.0252992,41.7147
12563,19744.9,-0.971272,3.13265,2.36484,1.81495,8.24236,5.5042,0.002154446,41.5237
12604,19786,-0.535504,3.19789,2.36484,1.823,8.24237,5.5295,0.003508663,41.7013
12645,19827.2,-0.816875,3.16065,2.36524,1.82783,8.24368,5.54473,-0.0193899,41.7616
12686,19868.3,0.000190588,3.29392,2.36716,1.82996,8.25013,5.55152,0.0,41.718
12727,19909.5,-1.68033,3.02893,2.36796,1.83542,8.2528,5.56841,-0.0130497,41.8655
12768,19950.6,-3.84546,2.69006,2.36882,1.8429,8.25567,5.59068,-0.069188,41.6142
12810,19991.6,-1.17657,3.10156,2.3702,1.84743,8.2603,5.60402,0.009602642,41.5404
12851,20032.8,-2.27782,2.93044,2.37121,1.85375,8.2637,5.62328,-0.0297312,41.718
12892,20073.9,0.319316,3.32254,2.37157,1.86498,8.2649,5.65715,0.0166199,41.7917
12933,20115,-2.63546,2.87996,2.37369,1.86741,8.27198,5.66433,-0.0307776,41.8487
12974,20156.1,0.16567,3.30623,2.37384,1.87632,8.27248,5.69158,0.009110165,41.6276
13015,20197.3,-0.776679,3.15912,2.37416,1.88473,8.27352,5.71775,-0.0111415,41.6577
13056,20238.4,-0.557856,3.19451,2.37432,1.89031,8.27406,5.73546,-0.0164968,41.6443
13097,20279.6,-1.17864,3.09171,2.37448,1.89964,8.27459,5.76397,-0.0162506,41.6443
13138,20320.7,-0.830774,3.1508,2.37543,1.90915,8.27778,5.7929,-0.0366253,41.6443
13179,20361.8,-0.0895927,3.25914,2.37548,1.91678,8.27794,5.81677,-0.00295463,41.7616
13220,20403,0.008455155,3.27669,2.37561,1.92388,8.27836,5.83902,0.0222214,41.5974
13261,20444.2,0.169051,3.30377,2.3759,1.92866,8.27934,5.85421,0.008863926,41.5807
13302,20485.3,0.223522,3.31824,2.37793,1.93068,8.28616,5.86044,0.00295467,41.6678
13343,20526.5,-1.78026,3.00646,2.379,1.93661,8.28969,5.87874,-0.009233284,41.6209
13384,20567.6,0.000378419,3.28192,2.38083,1.94307,8.29582,5.8974,-0.010095,41.7248
13426,20608.7,0.585284,3.36779,2.38117,1.94831,8.29695,5.91336,0.0177279,41.6376
13467,20649.8,-0.191397,3.2416,2.38189,1.95664,8.29937,5.93856,-0.00775595,41.4902
13508,20690.9,0.135429,3.29977,2.38356,1.96369,8.30492,5.95965,-0.007448196,41.7281
13549,20732.1,-1.76599,2.99784,2.38433,1.97182,8.30751,5.98392,-0.0433964,41.5974
13590,20773.2,-0.654213,3.1665,2.38464,1.97916,8.30854,6.00666,0.0109569,41.584
13631,20814.4,0.169051,3.29392,2.38491,1.98585,8.30941,6.02766,0.00043087,41.5706
13672,20855.5,-0.46394,3.19789,2.38495,1.99108,8.30957,6.04423,0.0110799,41.6008
13713,20896.6,-2.03477,2.94306,2.38514,2.00283,8.31017,6.07973,-0.00178509,41.5136
13754,20937.7,-0.141246,3.24068,2.38611,2.0104,8.31343,6.10282,-0.00726347,41.5908
13795,20979,-0.103868,3.24068,2.38612,2.01859,8.31344,6.12838,0.0219752,41.755
13836,21020.2,0.0163441,3.2616,2.38626,2.02441,8.31391,6.14655,0.002154446,41.6511
13877,21061.3,0.688028,3.37363,2.38812,2.02742,8.32012,6.15609,0.0150195,41.7248
13918,21102.4,0.152522,3.28838,2.3892,2.03127,8.32371,6.16791,-0.00504751,41.4701
13959,21143.5,-0.002439047,3.26407,2.39009,2.03545,8.32665,6.1807,6.15597e-05,41.4399
14001,21183.6,-0.009388796,3.2616,2.39146,2.04186,8.33121,6.19904,-0.000246239,41.3796
14042,21224.8,-0.0116428,3.26037,2.39248,2.0471,8.3346,6.21491,-0.000307751,41.5404
14083,21265.9,-2.26749,2.89597,2.39259,2.0592,8.33495,6.25119,-0.005232191,41.6142
14124,21307.1,0.000190588,3.25914,2.39496,2.06247,8.34279,6.26081,-6.15597e-05,41.45
14165,21348.2,-0.717136,3.13572,2.39509,2.07304,8.34321,6.29241,-0.00486288,41.5974
14206,21389.4,-0.527615,3.15942,2.39527,2.0809,8.34383,6.3166,0.0110184,41.5673
14247,21430.6,0.0246086,3.24714,2.39559,2.08652,8.34486,6.3342,0.0265303,41.5807
14288,21471.8,-0.885433,3.10156,2.39559,2.09385,8.34486,6.35698,0.0144039,41.4768
14329,21512.9,-0.808422,3.10649,2.39597,2.10632,8.34612,6.39396,0.0152041,41.7582
14370,21554,-1.21132,3.04893,2.39675,2.11255,8.34869,6.41323,0.005663061,41.4332
14411,21595.1,-0.002439047,3.23206,2.39679,2.12026,8.34884,6.43708,0.0336091,41.6242
14452,21636.2,-0.825139,3.10926,2.39714,2.12495,8.34999,6.45174,-0.000184679,41.6678
14493,21677.4,-0.001124229,3.24652,2.39906,2.12621,8.35635,6.45568,0.0,41.5505
14534,21718.6,0.33622,3.29023,2.40015,2.13202,8.35993,6.47338,0.002277517,41.6108
14575,21759.7,0.586036,3.3167,2.40087,2.14061,8.3623,6.4982,0.017297,41.6711
14617,21800.7,0.0877199,3.23975,2.40211,2.14556,8.36638,6.51302,0.0520757,41.6577
14658,21841.9,-1.45663,2.99692,2.40312,2.15281,8.36972,6.53455,0.005663061,41.6745
14699,21883,0.322884,3.27545,2.40394,2.1612,8.37242,6.55941,0.00178509,41.6175
14740,21924.2,-1.36966,3.00861,2.4056,2.16703,8.37788,6.57622,0.0118186,41.6779
14781,21965.3,-1.46207,2.99661,2.40592,2.17399,8.3789,6.59749,0.0253607,41.8119
14822,22006.4,-0.679194,3.11418,2.40608,2.18185,8.37946,6.62165,-0.002769947,41.765
14863,22047.5,-0.104619,3.2019,2.40623,2.18738,8.37992,6.63884,-0.002708387,41.8219
14904,22088.7,-0.414165,3.1468,2.40641,2.19669,8.38051,6.66672,-0.00609393,41.8219
14945,22129.9,-0.846364,3.08002,2.40735,2.20658,8.38359,6.69614,-0.001354218,41.6611
14986,22171.1,-0.911729,3.06647,2.40739,2.2141,8.38373,6.71921,-0.0158813,41.7851
15027,22212.2,-0.654776,3.10649,2.40752,2.22087,8.38415,6.73995,-0.0152041,41.8321
15068,22253.4,0.521234,3.29177,2.40827,2.22494,8.38663,6.75261,0.0112031,41.9528
15109,22294.5,-1.01391,3.05816,2.41009,2.22739,8.39258,6.76003,-0.0287463,41.9864
15150,22335.7,0.0456457,3.21728,2.41135,2.23296,8.39668,6.77677,-0.009294796,42.1941
15191,22376.8,0.000190588,3.20959,2.41272,2.23935,8.4012,6.79475,6.15597e-05,42.0902
15233,22417.7,0.0246086,3.21174,2.41375,2.24458,8.40453,6.81028,-0.0107106,42.1204
15274,22458.8,-0.395194,3.13449,2.41386,2.25312,8.40489,6.83549,-0.009110165,42.0166
15315,22499.9,0.292644,3.24837,2.41606,2.25994,8.41207,6.85528,-0.0120033,42.1941
15356,22541.1,-0.694784,3.07478,2.41623,2.26985,8.41262,6.88419,-0.00116954,42.1639
15397,22582.2,-0.65966,3.08248,2.41655,2.27628,8.41363,6.90364,-0.0164352,42.0734
15438,22623.3,-0.570065,3.09694,2.41683,2.2829,8.41454,6.92386,-0.007940626,42.0833
15479,22664.5,-0.97747,3.032,2.41686,2.28881,8.41464,6.94201,0.015635,42.3178
15520,22705.6,-1.62361,2.92305,2.41723,2.30071,8.41585,6.97676,-0.06598711,42.0799
15561,22746.8,-1.04509,3.01569,2.41802,2.30782,8.41839,6.99806,-0.0278845,42.1269
15602,22787.9,-0.647639,3.06986,2.41802,2.31622,8.4184,7.02353,0.006032371,41.9963
15643,22829,-0.180503,3.14742,2.41841,2.32106,8.41967,7.03826,-0.008248424,42.0734
15684,22870.2,0.035315,3.19389,2.42032,2.32368,8.42589,7.0463,-0.004185772,42.1941
15725,22911.5,-0.913044,3.03816,2.42113,2.32788,8.42848,7.05888,-0.0275767,42.1674
15766,22952.6,-3.55245,2.61497,2.42199,2.33461,8.43125,7.07842,-0.0594007,42.02
15808,22993.7,-1.51748,2.92798,2.42337,2.33978,8.43572,7.09276,0.0153272,42.2011
15849,23034.9,-1.3274,2.93906,2.42438,2.34583,8.43897,7.1105,-0.000553989,42.2011
15890,23076.1,-0.199662,3.06093,2.42449,2.35861,8.43931,7.14692,0.0442581,42.1576
15931,23117.2,-1.6685,2.86519,2.42686,2.3592,8.44683,7.14866,-0.048567,42.2481
15972,23158.4,-0.129413,3.05509,2.42699,2.36983,8.44722,7.17884,0.01268034,42.3218
16013,23199.5,-1.05899,2.87658,2.42732,2.37806,8.44826,7.2026,-0.0120033,42.2783
16054,23240.6,-0.747377,2.90151,2.42748,2.38374,8.44876,7.2192,-0.0177895,42.3085
16095,23281.8,-0.646324,2.85903,2.42764,2.39273,8.44923,7.2441,0.0959645,42.3821
16136,23322.9,0.39426,2.95845,2.42823,2.40283,8.45099,7.2713,0.008802414,42.3183
16177,23364,0.003571548,2.83349,2.42865,2.41001,8.45223,7.29085,-0.000430918,42.2411
16218,23405.1,-0.710187,2.62389,2.42872,2.41739,8.45244,7.31033,-0.0250529,42.1639
16259,23446.2,-0.842795,2.51155,2.42904,2.42219,8.45333,7.32279,-0.0267765,42.1001
16300,23487.3,-0.318747,2.61097,2.43096,2.42433,8.45863,7.32813,0.0380411,42.023
16341,23528.4,-1.17357,2.34689,2.43216,2.42892,8.46183,7.33925,-0.0238218,41.9024
16383,24011.6,1.09994,3.31824,2.48718,2.43031,8.63564,7.34227,0.000553989,42.4851
16424,24216.7,1.09994,3.41734,2.54983,2.43031,8.84788,7.34227,6.15597e-05,42.4583
16465,24421.7,1.10013,3.44258,2.61248,2.43031,9.06272,7.34227,6.15597e-05,42.3947
16506,24626.8,1.09994,3.46905,2.67513,2.43031,9.27931,7.34227,0.0,42.0095
16547,24831.8,1.10032,3.48813,2.73778,2.43031,9.4973,7.34227,6.15597e-05,41.5941
16588,25036.9,1.09994,3.49921,2.80044,2.43031,9.71626,7.34227,0.0,41.8018
16629,25241.9,1.09994,3.50352,2.86309,2.43031,9.93563,7.34227,6.1512e-05,41.9224
16670,25446.9,1.09994,3.50752,2.92574,2.43031,10.1552,7.34227,0.0,41.842
16711,25652,1.09994,3.51244,2.98839,2.43031,10.3751,7.34227,0.0,41.9023
16752,25857,1.09994,3.51798,3.05104,2.43031,10.5954,7.34227,0.0,42.244
16793,26062,1.09994,3.52444,3.11369,2.43031,10.816,7.34227,6.15597e-05,42.3176
16834,26267.1,1.10013,3.53245,3.17634,2.43031,11.037,7.34227,0.0,42.445
16875,26472.1,1.09994,3.53922,3.23899,2.43031,11.2585,7.34227,0.0,42.6358
16916,26677.1,1.09994,3.54507,3.30164,2.43031,11.4804,7.34227,-6.1512e-05,42.7831
16957,26882.2,1.09994,3.55768,3.36429,2.43031,11.7029,7.34227,0.0,42.8434
16998,27086.5,1.03645,3.60016,3.42657,2.43031,11.9256,7.34227,6.15597e-05,42.686
17039,27291.6,0.361578,3.59985,3.46479,2.43031,12.0632,7.34227,-6.15597e-05,42.5253
17080,27496.6,0.143694,3.60016,3.47777,2.43031,12.1099,7.34227,0.0,42.3579
17121,27701.7,0.0792675,3.60016,3.48383,2.43031,12.1317,7.34227,6.15597e-05,42.3412
17186,27995.7,0.000190588,3.56015,3.48691,2.43031,12.1428,7.34227,-6.15597e-05,42.5789
17227,28036.8,-1.97861,3.15758,3.4876,2.43682,12.1453,7.3634,-0.02936182,42.2675
17268,28078,-0.876981,3.26991,3.48842,2.44525,12.1482,7.39066,0.0132959,42.1938
17309,28119,0.000378419,3.40903,3.49122,2.44987,12.1584,7.4057,0.0,42.2976
17350,28160.256,-2.81671,2.9486,3.49122,2.45376,12.1584,7.41748,-0.0221599,42.2842
17391,28201.5,-0.988928,3.18189,3.49261,2.47307,12.1633,7.47375,-0.0114492,42.2541
17432,28242.6,-0.209617,3.29238,3.49266,2.49376,12.1635,7.53568,0.0184666,42.1804
17473,28283.8,-1.37887,3.11757,3.49346,2.50729,12.1662,7.57625,-0.0320086,42.1368
17514,28324.9,0.000190588,3.34655,3.49908,2.509,12.1858,7.58169,-6.15597e-05,42.1067
17555,28366,-0.633176,3.22898,3.49908,2.52144,12.1858,7.61941,0.000246191,42.1067
17596,28407,0.009957804,3.32501,3.50238,2.53027,12.1975,7.64571,0.0555228,42.0933
17637,28448.2,-3.84922,2.73346,3.50447,2.5376,12.2049,7.66689,-0.000430918,42.1368
17678,28489.3,1.28176,3.5346,3.50705,2.5447,12.214,7.68895,-0.007078839,42.0464
17719,28530.5,0.0732569,3.34039,3.50769,2.55156,12.2162,7.71067,0.0213596,42.0464
17760,28571.6,-0.0142724,3.32901,3.50899,2.55502,12.2208,7.72151,0.0119417,42.0766
17801,28612.7,0.000190588,3.33516,3.51067,2.56022,12.2267,7.73804,6.1512e-05,41.8755
17842,28653.8,-0.399326,3.26376,3.51068,2.56651,12.2267,7.75762,0.0150194,41.7616
17883,28694.9,-0.199474,3.29977,3.51226,2.56966,12.2322,7.7676,0.0418575,41.7348
17924,28736.1,-0.808422,3.19789,3.51341,2.57944,12.2362,7.79793,0.007140398,41.8287
17965,28777.3,0.0150292,3.32378,3.51516,2.58731,12.2423,7.82221,0.0142808,41.8321
18006,28818.4,0.009769972,3.32839,3.51552,2.59365,12.2435,7.84212,0.0144655,41.8222
18047,28859.5,-0.706618,3.22129,3.51724,2.59936,12.2494,7.86026,-0.03114686,41.9429
18088,28900.7,-0.750007,3.21575,3.51745,2.60439,12.2501,7.8764,-0.0232063,41.8993
18129,28941.811,1.0141,3.48813,3.51905,2.60882,12.2556,7.89062,0.00049243,41.9463
18170,28983,-0.881864,3.19266,3.52017,2.61688,12.2594,7.9154,-0.018959,41.9765
18211,29024.1,2.75712e-06,3.33362,3.52146,2.61918,12.2639,7.92274,-6.15597e-05,41.9463
18252,29065.3,0.268226,3.36379,3.52158,2.62643,12.2643,7.94506,0.004308891,42.0502
18293,29106.4,-0.389559,3.26376,3.52325,2.63086,12.2701,7.95888,0.003754854,42.1106
18334,29147.6,0.000190588,3.3327,3.52478,2.63479,12.2754,7.97145,0.0,42.1541
18375,29188.8,-0.638059,3.2339,3.52603,2.63963,12.2797,7.98598,-0.0193899,42.2846
18416,29230.1,2.75712e-06,3.33055,3.5269,2.64519,12.2827,8.00356,-0.0213596,42.0566
18457,29271.1,0.126413,3.33978,3.52692,2.6512,12.2827,8.02225,0.032378,42.1704
18498,29312.3,0.000378419,3.33085,3.52929,2.65568,12.2911,8.0362,6.15597e-05,42.2708
18539,29353.4,0.726158,3.44011,3.53014,2.66037,12.294,8.05067,0.0137884,41.9124
18581,29393.8,-1.0233,3.16435,3.53019,2.66452,12.2942,8.06335,-0.004555082,41.9861
18622,29435,-0.998695,3.16896,3.53166,2.67174,12.2992,8.08575,-0.02394495,42.043
18663,29476.2,-0.803539,3.19451,3.53188,2.67978,12.2999,8.11118,0.0121264,42.1167
18704,29517.3,0.000190588,3.33208,3.5345,2.67993,12.3093,8.11169,6.15597e-05,42.1167
18745,29558.4,-3.84922,2.72146,3.5359,2.69256,12.3142,8.14867,-0.00178509,41.7482
18786,29599.6,-1.99251,2.98615,3.5359,2.71761,12.3142,8.22112,0.006524849,42.0129
18827,29640.7,-3.84922,2.70822,3.536,2.73257,12.3145,8.26603,-0.000615549,41.8956
18868,29681.9,0.511467,3.39703,3.54019,2.73915,12.3289,8.28576,0.00178509,42.043
18909,29723.1,-1.56407,3.0637,3.54235,2.74675,12.3365,8.30828,0.0131112,42.0865
18950,29764.4,0.000190588,3.3207,3.54566,2.75272,12.3481,8.32686,0.0,42.0129
18991,29805.5,0.000190588,3.31824,3.54776,2.76044,12.3555,8.34938,0.000123119,41.909
19032,29846.6,-0.789639,3.18004,3.54777,2.77392,12.3555,8.38927,-0.0168046,42.0129
19073,29887.8,-1.28589,3.10895,3.55093,2.77884,12.3666,8.40471,0.001477289,41.7616
19114,29928.9,0.000190588,3.31423,3.55227,2.78197,12.3712,8.41463,0.000123119,41.9961
19155,29970,-1.44179,3.08494,3.55233,2.78858,12.3714,8.43546,-0.0344093,41.8923
19196,30011.2,-1.6516,3.05878,3.55395,2.79102,12.3771,8.44301,-0.0508445,42.0095
19237,30052.3,0.000190588,3.30962,3.55554,2.7972,12.3826,8.46211,0.0,41.9023
19278,30093.4,-1.02818,3.14896,3.5567,2.80301,12.3866,8.48027,-0.03034668,41.842
19319,30134.6,-2.32929,2.94336,3.55846,2.81219,12.3926,8.50826,-0.0197592,41.8856
19360,30175.7,-0.389559,3.23175,3.55852,2.82291,12.3928,8.54123,0.000553989,41.8856
19401,30216.8,-0.614205,3.20097,3.56005,2.82755,12.398,8.55586,0.0155119,41.9593
19442,30258,-0.647827,3.19636,3.56069,2.83359,12.4001,8.57495,0.003877974,41.9593
19483,30299.1,-0.0725,3.2853,3.56121,2.83743,12.4019,8.58722,0.00917172,41.8555
19524,30340.3,-0.433887,3.2219,3.56279,2.84623,12.4073,8.61407,0.0113877,41.8119
19565,30381.5,1.10633,3.46812,3.56447,2.84932,12.4131,8.62391,0.0210518,41.976
19606,30422.6,-1.47616,3.06647,3.56475,2.85239,12.414,8.63311,0.0246221,42.033
19647,30463.8,-0.0437619,3.293,3.56654,2.85673,12.4201,8.6465,-0.001231146,41.9593
19688,30504.9,0.370593,3.3487,3.56663,2.86493,12.4204,8.6721,0.01895895,42.1368
19729,30546,0.691972,3.40072,3.5692,2.8696,12.4292,8.6859,-0.0142192,42.1502
19770,30587.2,-0.0386904,3.28561,3.56935,2.87476,12.4297,8.70203,0.0141577,42.1804
19811,30628.4,0.000190588,3.29454,3.57019,2.87666,12.4326,8.70811,0.0336707,42.0766
19852,30669.5,1.71039,3.55338,3.57156,2.88584,12.4374,8.7362,0.0381642,42.1067
19893,30710.6,-1.35914,3.08125,3.57259,2.88958,12.441,8.74761,0.0347171,42.1804
19935,30751.7,0.000190588,3.29792,3.57349,2.89052,12.444,8.75049,0.0,42.1067
19976,30792.9,-2.09976,2.9723,3.57493,2.89838,12.4489,8.7744,-0.0763899,42.0766
20017,30834,0.0732569,3.29946,3.57506,2.90673,12.4494,8.80035,0.0342862,42.1067
20058,30875.2,0.000190588,3.29761,3.57779,2.91009,12.459,8.8109,6.15597e-05,42.0196
20099,30916.3,-0.877168,3.15296,3.57793,2.91666,12.4594,8.8303,-0.00861769,42.0799
20140,30957.4,-2.53384,2.88458,3.57919,2.93832,12.4638,8.89207,-0.0165583,42.0799
20181,30998.5,-0.40421,3.21421,3.57923,2.95706,12.4639,8.9474,0.0302236,42.0062
20222,31039.6,0.5017,3.35978,3.58017,2.96919,12.4671,8.98311,0.0154503,42.1569
20263,31080.8,0.000190588,3.29854,3.58565,2.96928,12.486,8.9834,-6.15597e-05,42.1133
20304,31121.9,1.47166,3.50875,3.58613,2.98286,12.4876,9.02418,0.0301005,42.0262
20345,31163.1,0.000190588,3.29207,3.59106,2.99056,12.5049,9.04646,-0.0355789,41.9392
20386,31204.2,-0.262773,3.23483,3.59106,3.00183,12.5049,9.07903,0.0150194,41.7783
20427,31245.4,0.000190588,3.29577,3.59423,3.00497,12.5159,9.08901,0.0,41.7951
20468,31286.5,0.000190588,3.29269,3.59557,3.01206,12.5206,9.11116,-0.0313315,41.9593
20509,31327.6,-0.296958,3.24437,3.59563,3.01577,12.5207,9.12267,-0.005663109,41.8688
20550,31368.8,2.75712e-06,3.29331,3.59725,3.02048,12.5264,9.13739,6.15597e-05,41.9258
20591,31409.9,0.604255,3.38225,3.59851,3.02731,12.5307,9.1584,-0.0137884,42.0129
20632,31451.1,-0.540387,3.20066,3.59886,3.03257,12.5319,9.17473,-0.0192667,41.7616
20673,31492.3,1.12999,3.4595,3.60105,3.04003,12.5394,9.19749,0.003631735,41.9827
20714,31533.435,-0.40421,3.22098,3.60181,3.04841,12.542,9.22306,0.000123119,41.8788
20755,31574.6,0.848248,3.41949,3.60301,3.05415,12.546,9.24077,0.00289307,41.9526
20796,31615.7,-0.287379,3.23698,3.60384,3.06222,12.5488,9.26606,0.026161,41.8923
20837,31656.8,-1.19329,3.10587,3.60449,3.06549,12.551,9.27647,-0.0282538,41.966
20878,31698,-1.97861,2.98891,3.60607,3.06968,12.5564,9.28972,-0.060755,41.9358
20919,31739.2,-0.579644,3.1942,3.60677,3.07867,12.5588,9.31713,0.0104028,42.0229
20960,31780.3,0.000190588,3.29269,3.60805,3.0794,12.5631,9.31944,0.0,41.9626
21001,31821.4,0.000190588,3.29023,3.60984,3.08666,12.5693,9.34147,-0.007263517,42.0363
21042,31862.6,-0.86233,3.14834,3.60984,3.09326,12.5693,9.36191,-0.0195745,41.976
21083,31903.7,0.000190588,3.29177,3.61138,3.095,12.5745,9.36748,0.000123119,41.976
21124,31944.9,-0.794335,3.16496,3.61263,3.10172,12.5788,9.38764,-0.0142808,41.9325
21165,31986,0.000190588,3.29023,3.61349,3.10541,12.5817,9.39917,6.15597e-05,41.9191
21206,32027.2,-0.57476,3.19235,3.61356,3.11261,12.5819,9.42139,-0.002646828,41.966
21247,32068.4,0.000190588,3.29023,3.61587,3.11593,12.59,9.43144,6.15597e-05,41.8051
21288,32108.6,0.000190588,3.289,3.61678,3.12061,12.593,9.44566,6.15597e-05,41.7314
21330,32149.8,-0.442903,3.21913,3.61747,3.12519,12.5954,9.45955,-0.0465972,41.9526
21371,32191,-1.12511,3.10772,3.61829,3.13344,12.5981,9.48491,-0.0221598,41.8923
21412,32232.1,0.000190588,3.28869,3.62108,3.14017,12.608,9.50586,-0.0363791,41.9794
21453,32273.252,-1.01335,3.13603,3.62108,3.14033,12.608,9.50637,-0.0309622,42.0531
21494,32314.4,-2.49458,2.87011,3.62248,3.16182,12.6128,9.56704,0.009602594,41.9191
21535,32355.6,-1.54923,3.01169,3.62248,3.18273,12.6128,9.62817,6.15597e-05,41.8889
21576,32396.6,0.764663,3.3724,3.62295,3.19652,12.6143,9.66859,0.0193283,41.9325
21617,32437.7,0.823642,3.4118,3.62882,3.19935,12.6344,9.67734,0.009971952,41.8286
21658,32478.9,-0.867213,3.13203,3.62893,3.2101,12.6348,9.70915,0.005724621,41.8889
21699,32520.1,-1.13525,3.08987,3.63223,3.21824,12.6463,9.73306,0.0582927,41.9023
21740,32561.2,-2.75792,2.85319,3.63433,3.22276,12.6536,9.74649,-0.0426577,41.6376
21781,32602.3,0.984613,3.41795,3.63466,3.23503,12.6547,9.78242,0.0427808,41.8286
21822,32643.5,-0.369837,3.21144,3.63751,3.24112,12.6646,9.80129,0.000184679,41.7549
21863,32684.7,-0.209617,3.23729,3.63884,3.24489,12.6692,9.81289,0.0321934,41.7851
21904,32725.8,0.000190588,3.27607,3.64052,3.25053,12.675,9.8305,-0.0466588,41.7549
21945,32767,-1.69104,3.00584,3.64052,3.25537,12.675,9.84521,-0.00338554,41.7851
21986,32808.1,-1.31557,3.07171,3.64211,3.25847,12.6804,9.85491,-0.0292387,41.7683
22027,32849.3,-1.56407,3.01846,3.64327,3.26792,12.6844,9.8836,0.01317277,41.7248
22068,32890.4,-1.05749,3.0911,3.64502,3.27668,12.6903,9.91001,0.0349018,41.6075
22109,32931.5,0.453427,3.32716,3.6453,3.2835,12.6912,9.93096,0.0141577,41.5639
22150,32972.6,0.428821,3.32162,3.64673,3.2895,12.696,9.94967,0.0317625,41.6678
22191,33013.8,-0.0971059,3.24314,3.6473,3.2944,12.6979,9.96502,0.004678202,41.6979
22232,33054.9,-0.998507,3.10341,3.64783,3.29894,12.6997,9.97928,-0.0347171,41.7382
22273,33096.1,0.560678,3.33886,3.64962,3.30656,12.7057,10.0021,0.0135421,41.7248
22314,33137.2,2.75712e-06,3.26099,3.65132,3.30945,12.7115,10.0112,-6.15597e-05,41.7147
22355,33178.3,-1.05279,3.08402,3.65132,3.31621,12.7115,10.0314,-0.009417916,41.6443
22396,33219.4,-1.3351,3.04739,3.65312,3.31926,12.7176,10.0408,-0.01169548,41.765
22437,33260.5,0.000378419,3.2576,3.65465,3.32505,12.7227,10.0587,-0.022283,41.7416
22478,33301.6,0.000190588,3.25422,3.65589,3.32972,12.7269,10.0723,0.000123072,41.8321
22519,33342.9,0.116458,3.26591,3.65612,3.33546,12.7277,10.09,0.0236988,41.9562
22560,33384,-0.730284,3.12957,3.65676,3.34014,12.7299,10.1041,0.0516448,41.8256
22601,33425.1,0.000190588,3.25176,3.65914,3.34598,12.7381,10.1219,6.15597e-05,42.0502
22642,33466.2,0.0732569,3.25606,3.65934,3.35065,12.7387,10.1359,-0.00116954,41.9632
22684,33506.8,-2.03665,2.93567,3.66004,3.35211,12.741,10.1403,-0.035148,41.9765
22725,33548,-0.57476,3.15111,3.6615,3.36117,12.746,10.1674,-0.001600456,41.9632
22766,33589.1,-0.6328,3.14188,3.66172,3.36824,12.7467,10.1893,-0.00874085,41.9765
22807,33630.3,0.000190588,3.2496,3.66434,3.37022,12.7558,10.1953,0.0,41.9463
22848,33671.4,-0.652522,3.14096,3.66575,3.37786,12.7606,10.2176,-0.02345252,41.9765
22889,33712.6,-1.19348,3.02277,3.66575,3.4049,12.7606,10.2929,0.0309007,41.9463
22930,33753.6,-1.47597,2.98861,3.66579,3.41921,12.7607,10.3352,-0.019513,42.0032
22971,33794.7,0.964703,3.38102,3.66921,3.42931,12.7722,10.364,-0.0143424,41.9997
23012,33835.8,-2.96247,2.77347,3.67221,3.43303,12.7824,10.3748,-0.0197592,41.8623
23053,33877,0.000190588,3.23452,3.67551,3.44297,12.7937,10.4042,-0.0310853,41.9325
23094,33918,2.75712e-06,3.22867,3.67761,3.45066,12.8009,10.4259,0.0,41.8688
23135,33959.2,-0.609321,3.11603,3.67762,3.46304,12.8009,10.4611,-0.00541687,41.7917
23176,34000.3,-0.993624,3.07078,3.68079,3.4665,12.8117,10.4719,-0.009664154,41.7917
23217,34041.4,0.000378419,3.22375,3.68213,3.47217,12.8163,10.4891,0.0,41.6879
23258,34082.5,-0.745123,3.09941,3.68219,3.47777,12.8165,10.5062,-0.0110799,41.8051
23299,34123.6,0.000190588,3.22282,3.6838,3.48058,12.822,10.5147,0.0,41.9224
23340,34164.7,0.000190588,3.21944,3.68539,3.48742,12.8273,10.5353,6.15597e-05,42.0095
23381,34205.8,2.75712e-06,3.21667,3.68655,3.49276,12.8312,10.5515,-0.02394495,41.9961
23422,34247,0.000190588,3.21605,3.6883,3.50016,12.837,10.5735,0.000123119,41.966
23463,34288.1,-0.560109,3.10679,3.68836,3.51172,12.8372,10.6077,0.0392106,41.8487
23504,34329.3,-1.00846,3.04985,3.68989,3.51583,12.8423,10.6203,-0.00486283,41.9961
23545,34370.5,0.0783283,3.21174,3.69047,3.52278,12.8442,10.6415,0.0155119,41.966
23586,34411.7,-0.60425,3.10433,3.69104,3.52738,12.846,10.6557,-0.002769947,42.1133
23627,34452.8,-2.03158,2.87904,3.69264,3.53391,12.8514,10.6752,-0.0224677,42.0095
23668,34493.8,0.0289287,3.1982,3.69353,3.53951,12.8543,10.692,-0.009787274,41.9358
23709,34535,-0.384675,3.14434,3.69462,3.53954,12.8579,10.6921,-0.01175704,42.1569
23750,34576.1,0.000190588,3.19851,3.69642,3.54691,12.8639,10.7138,0.00677109,42.2875
23791,34617.3,-0.243802,3.14711,3.69642,3.55483,12.8639,10.7377,0.00486288,42.3478
23832,34658.5,-2.33417,2.82302,3.69795,3.55938,12.8689,10.7506,0.0195745,42.3913
23873,34699.6,-0.267657,3.14188,3.69921,3.56438,12.8731,10.7657,0.0155735,42.3311
23914,34740.8,-0.345606,3.14065,3.70006,3.56583,12.876,10.7702,-0.009233236,42.4516
23955,34781.9,0.862335,3.30654,3.70018,3.57503,12.8763,10.7976,0.0443812,42.4081
23996,34823,-1.7981,2.91443,3.70245,3.57708,12.884,10.8036,-0.0415497,42.3645
24038,34863.7,0.000190588,3.19328,3.70334,3.5807,12.8869,10.8141,0.000123119,42.3947
24079,34904.8,-0.184823,3.14988,3.70404,3.58787,12.8892,10.8352,0.0550919,42.4549
24120,34945.9,-0.155897,3.14711,3.70485,3.59622,12.8919,10.8601,0.0220983,42.4382
24161,34987.1,0.000378419,3.1902,3.70764,3.60028,12.9014,10.8724,0.0,42.3779
24202,35028.2,-1.17375,2.9843,3.70764,3.60601,12.9014,10.8885,0.0493057,42.3478
24243,35069.4,-1.4277,2.91012,3.70904,3.62435,12.9061,10.9382,-0.0135421,42.3478
24284,35110.5,-0.672245,2.96983,3.70908,3.64473,12.9062,10.9945,-0.00689421,42.3612
24325,35151.6,-0.248873,2.99045,3.70989,3.65842,12.9087,11.0317,0.0341631,42.2708
24366,35192.7,0.000378419,3.07755,3.71549,3.65946,12.9267,11.0347,-6.15597e-05,42.1368
24407,35233.8,-1.10595,2.82118,3.71549,3.67243,12.9267,11.0702,-0.0148963,42.1971
24448,35274.9,0.360638,3.02246,3.71888,3.68075,12.9376,11.092,0.01175704,42.2105
24489,35316,-2.39259,2.53525,3.72089,3.68988,12.944,11.1149,0.04222684,42.1971
24530,35357.1,0.000190588,2.92644,3.72406,3.69515,12.9538,11.1294,-0.0383488,42.2105
24571,35398.3,-0.369649,2.79163,3.7241,3.7022,12.954,11.1486,-0.009417963,42.1067
24612,35439.3,0.0289287,2.83995,3.72544,3.70549,12.958,11.1573,-0.001908207,42.2105
24653,35480.5,0.000378419,2.79994,3.72708,3.71065,12.9629,11.1709,0.000184679,42.1502
24694,35521.5,-0.555226,2.57557,3.72708,3.71733,12.9629,11.1877,-0.00664797,42.0766
24735,35562.8,-1.10576,2.44046,3.72867,3.72093,12.9674,11.1967,-0.03570199,42.0766
24764,35590.5,-0.000372905,2.28842,3.72984,3.72555,12.9706,11.2074,0.0,42.1502