File: Battery Data/RAW/A123_07.csv
,Test_Time(s),Current(A),Voltage(V),Charge_Capacity(Ah),Discharge_Capacity(Ah),Charge_Energy(Wh),Discharge_Energy(Wh),dV/dt(V/s),Temperature (C)_1
1,8.01086,-1.09978,3.11079,0.0,0.001528765,0.0,0.004761715,-0.000738668,20.4023
44,223.232,-1.09978,3.06216,0.0,0.0672801,0.0,0.207011,-0.000123072,20.2211
87,438.486,-1.09978,3.03847,0.0,0.133043,0.0,0.407603,-6.15597e-05,20.5146
130,653.72,-1.09978,3.016,0.0,0.198797,0.0,0.606691,-6.15597e-05,20.3684
173,868.947,-1.09996,2.98368,0.0,0.264552,0.0,0.80399,-0.000123119,20.3684
216,1084.2,-1.09978,2.94398,0.0,0.330314,0.0,0.999078,-0.000184679,20.5219
259,1299.47,-1.09996,2.67714,0.0,0.396081,0.0,1.18657,-0.00141573,20.5971
326,1633.97,1.09942,3.31607,0.0428072,0.418792,0.135205,1.24352,0.000738668,20.2656
369,1849.2,1.0996,3.44995,0.108544,0.418792,0.35929,1.24352,6.1512e-05,20.2995
412,2064.44,1.0996,3.47919,0.174283,0.418792,0.586976,1.24352,0.000123072,20.2656
455,2279.67,1.09942,3.50782,0.240019,0.418792,0.816679,1.24352,6.15597e-05,20.0675
498,2494.91,1.09923,3.52721,0.305761,0.418792,1.04799,1.24352,0.0,20.2211
541,2710.15,1.0996,3.53675,0.3715,0.418792,1.28022,1.24352,0.0,20.3917
584,2925.39,1.09942,3.5429,0.437241,0.418792,1.51293,1.24352,0.0,20.1227
627,3140.65,1.0996,3.54937,0.502987,0.418792,1.74608,1.24352,-6.15597e-05,20.1534
670,3355.91,1.0996,3.55675,0.568732,0.418792,1.97968,1.24352,-6.15597e-05,20.2762
713,3571.14,1.0996,3.56598,0.63447,0.418792,2.21381,1.24352,-6.15597e-05,20.8133
756,3786.38,1.0996,3.57706,0.700211,0.418792,2.4486,1.24352,6.1512e-05,20.3621
799,4001.62,1.09978,3.58907,0.765953,0.418792,2.68416,1.24352,6.15597e-05,20.2455
842,4212.09,1.08859,3.60138,0.830217,0.418792,2.91523,1.24352,6.15597e-05,20.3239
885,4427.35,0.970391,3.60107,0.892137,0.418792,3.13821,1.24352,6.1512e-05,20.5432
928,4642.57,0.728763,3.60107,0.943707,0.418792,3.32392,1.24352,0.0,20.3377
971,4857.83,0.435886,3.60107,0.978124,0.418792,3.44785,1.24352,0.0,20.3991
1014,5073.07,0.263372,3.60107,0.998426,0.418792,3.52096,1.24352,-6.15597e-05,20.2455
1057,5288.31,0.175491,3.60107,1.01127,0.418792,3.5672,1.24352,0.0,20.0982
1100,5503.53,0.126588,3.60076,1.02017,0.418792,3.59925,1.24352,-6.1512e-05,20.1904
1143,5718.77,0.096633,3.60138,1.02677,0.418792,3.62304,1.24352,6.15597e-05,19.9309
1186,5934,0.077144,3.60138,1.03193,0.418792,3.6416,1.24352,0.000123072,19.7296
1229,6149.23,0.0630685,3.60076,1.0361,0.418792,3.65661,1.24352,-6.1512e-05,19.8588
1296,6442.86,-0.000270769,3.54998,1.0388,0.418793,3.66634,1.24352,-0.000123072,20.0675
1339,6485.94,-0.824945,3.30869,1.0388,0.423622,3.66634,1.25993,-0.001600409,20.0982
1382,6529.02,-0.412608,3.3724,1.03971,0.426379,3.66957,1.26916,-0.000553989,19.9171
1425,6572.11,-0.412608,3.33885,1.04063,0.431774,3.67276,1.28704,-0.00049243,19.9923
1468,6615.2,0.412427,3.44503,1.04066,0.438051,3.67288,1.30769,0.0422261,19.9616
1511,6658.27,-0.412427,3.30746,1.04154,0.440277,3.67591,1.31506,-0.000184679,19.7051
1554,6701.35,-2.06214,2.95321,1.04154,0.460096,3.67591,1.37306,-0.00043087,19.8832
1597,6744.45,-0.825126,3.18004,1.04337,0.470034,3.68224,1.40395,-6.15597e-05,19.8218
1640,6787.54,-0.000451223,3.34778,1.04703,0.470593,3.69551,1.40573,6.15597e-05,19.8832
1684,6829.94,-0.412608,3.27176,1.04703,0.472664,3.69551,1.41251,-0.000123072,19.8525
1727,6873.04,-0.000270769,3.34439,1.04795,0.476552,3.69863,1.42502,0.000123119,19.8525
1770,6916.16,0.412247,3.40748,1.04844,0.482056,3.7003,1.4428,0.000615501,19.7465
1813,6959.25,-0.412608,3.26221,1.04886,0.486569,3.70175,1.45753,-6.15597e-05,19.7158
1856,7002.35,-0.412608,3.26683,1.04978,0.490129,3.70487,1.46894,-0.0144652,19.7603
1899,7045.43,-2.06232,2.94829,1.04978,0.502188,3.70487,1.50424,0.0419799,19.7603
1942,7088.52,-0.824945,3.16804,1.05161,0.517949,3.71116,1.55126,0.0,19.791
1985,7131.64,-0.000270769,3.33177,1.05526,0.522389,3.72434,1.56533,6.15597e-05,19.7603
2029,7173.88,-0.412427,3.26468,1.05526,0.522505,3.72434,1.56571,-0.014219,19.8525
2072,7216.96,0.412427,3.39887,1.05573,0.528351,3.72592,1.58456,0.000677109,19.9446
2115,7260.05,-0.412608,3.25698,1.05618,0.531008,3.72745,1.59322,-6.15597e-05,19.9171
2158,7303.14,-0.412608,3.25514,1.05709,0.536407,3.73056,1.61059,-6.15597e-05,20.0982
2201,7346.24,-0.000270769,3.32808,1.05801,0.541653,3.73365,1.62746,-0.0139728,19.8895
2244,7389.29,-0.412788,3.25421,1.05801,0.544912,3.73365,1.63807,-6.15597e-05,19.6193
2287,7432.38,0.824945,3.43857,1.05881,0.566836,3.73641,1.70129,0.00172353,19.4857
2330,7475.45,1.64998,3.60753,1.06285,0.574166,3.7508,1.72447,0.0012311,19.5472
2374,7517.87,-0.000270769,3.32992,1.06351,0.57417,3.75318,1.72448,6.15597e-05,19.7147
2417,7560.94,-0.412608,3.2536,1.06351,0.577269,3.75318,1.73457,0.0,19.8207
2460,7604.02,-0.412608,3.25575,1.06442,0.580831,3.75628,1.74596,-0.000123072,19.8789
2503,7647.13,-0.412608,3.25298,1.06534,0.586232,3.75938,1.76332,-0.000184631,19.8174
2546,7690.2,-0.825126,3.17542,1.06534,0.591659,3.75938,1.78089,-0.00036931,20.1014
2589,7733.29,-0.412608,3.25267,1.06625,0.594732,3.76247,1.79075,-0.000123119,20.0707
2632,7776.36,-2.06214,2.93167,1.06625,0.610882,3.76247,1.83759,-0.000246191,20.0707
2675,7819.44,-0.825126,3.15727,1.06808,0.623574,3.76875,1.87588,0.0,19.9647
2718,7862.53,-0.000270769,3.32408,1.07175,0.625968,3.78196,1.88344,0.000123119,20.023
2762,7904.92,-0.412608,3.25329,1.07175,0.627118,3.78196,1.88718,-0.000184631,20.0845
2805,7948.08,-0.000451223,3.32377,1.07267,0.631933,3.78506,1.90263,6.15597e-05,20.0675
2848,7991.21,-0.825126,3.17327,1.07267,0.63659,3.78506,1.91763,-0.000246191,20.0675
2891,8034.3,-0.412608,3.24683,1.07358,0.641033,3.78817,1.93199,-6.15597e-05,20.0368
2934,8077.4,-0.000270769,3.32285,1.0745,0.645229,3.79126,1.94541,0.000123072,20.0675
2977,8120.48,-3.29915,2.74147,1.0745,0.650811,3.79126,1.96281,-0.101072,19.8863
3020,8163.57,-0.824945,3.15111,1.07633,0.671521,3.79753,2.02249,-0.000184679,19.8863
3063,8206.66,-0.000451223,3.31607,1.07999,0.677785,3.81068,2.04223,6.15597e-05,20.023
3107,8248.9,-0.000451223,3.32285,1.07999,0.677789,3.81068,2.04224,0.0,20.2211
3150,8291.99,-0.824945,3.16927,1.07999,0.682849,3.81068,2.05854,-0.000246239,20.1459
3193,8335.07,-0.412608,3.24652,1.0809,0.685489,3.81377,2.06704,-0.000123119,20.0707
3236,8378.15,-0.412788,3.24344,1.08182,0.690884,3.81687,2.08434,-0.000123119,19.756
3279,8421.25,0.412247,3.37886,1.08197,0.697047,3.81739,2.10411,0.0429648,19.7729
3322,8464.33,-0.412788,3.24344,1.08273,0.699391,3.81997,2.11172,-0.000123119,19.6977
3365,8507.41,-2.0625,2.91351,1.08273,0.719689,3.81997,2.17016,-0.000246191,19.6532
3408,8550.53,-0.824945,3.14342,1.08457,0.729278,3.82624,2.19971,0.0,19.5949
3451,8593.61,-0.000270769,3.313,1.08822,0.729596,3.83934,2.20071,0.000123119,19.6872
3495,8635.96,-0.412788,3.23913,1.08822,0.731783,3.83934,2.2078,-0.000123119,19.7317
3538,8679.05,-0.000631677,3.3133,1.08914,0.735563,3.84242,2.21983,0.0,19.7179
3581,8722.12,0.412247,3.37855,1.08973,0.741067,3.84443,2.23745,0.000615501,19.7179
3624,8765.24,-0.412788,3.23205,1.09005,0.745691,3.8455,2.25241,0.0,19.6257
3667,8808.31,-0.412788,3.23698,1.09097,0.749249,3.8486,2.26371,-0.000307751,19.6977
3710,8851.39,-2.06214,2.9172,1.09097,0.76174,3.8486,2.29986,0.0424108,19.5302
3753,8894.45,-0.825126,3.1348,1.09279,0.777177,3.85482,2.34548,6.15597e-05,19.544
3796,8937.56,-0.000451223,3.29915,1.09645,0.781409,3.86791,2.35875,6.15597e-05,19.8757
3840,8979.93,-0.412427,3.23205,1.09645,0.781641,3.86791,2.3595,-0.0144036,19.7698
3883,9023.01,0.412066,3.36655,1.09703,0.787373,3.86986,2.37779,0.000553989,20.04
3926,9066.1,-0.824945,3.15296,1.09737,0.790168,3.87099,2.3868,-0.014219,19.828
3969,9109.19,-0.412788,3.22036,1.09828,0.79555,3.87406,2.40394,-0.000123119,19.9785
4012,9152.27,-0.000270769,3.29361,1.09919,0.800679,3.87713,2.42025,-0.0141575,19.7973
4055,9195.36,-0.412788,3.21882,1.09919,0.804056,3.87713,2.43113,-6.1512e-05,19.7528
4098,9238.45,0.824945,3.40748,1.10023,0.825861,3.88067,2.49321,0.00123105,19.6023
4141,9281.55,1.64998,3.5746,1.10452,0.833194,3.89583,2.51614,0.001046419,19.6945
4185,9323.9,-0.000270769,3.29361,1.10469,0.833199,3.89645,2.51616,0.0,19.4995
4228,9366.99,-0.825306,3.14526,1.10469,0.836422,3.89645,2.52653,-0.014219,19.7252
4271,9410.07,-0.412608,3.21759,1.10561,0.839976,3.89952,2.53776,-0.000184679,19.6945
4314,9453.14,-0.412608,3.21482,1.10652,0.845375,3.90258,2.55491,-6.15597e-05,19.6945
4357,9496.24,-0.825126,3.13726,1.10652,0.850923,3.90258,2.57265,-0.000184679,19.6945
4400,9539.33,-0.412788,3.2142,1.10744,0.853877,3.90566,2.58202,-0.000123119,19.9647
4443,9582.42,-2.06196,2.89597,1.10744,0.870502,3.90566,2.6296,-0.000307798,19.5885
4486,9625.51,-0.825126,3.12249,1.10927,0.882833,3.91189,2.66646,6.15597e-05,20.0092
4529,9668.57,-0.000270769,3.28776,1.11294,0.884989,3.92496,2.6732,6.15597e-05,19.9785
4573,9710.94,-0.412608,3.21482,1.11294,0.886255,3.92496,2.67727,-0.000184679,20.0982
4616,9754.03,-0.000451223,3.28591,1.11386,0.890955,3.92802,2.69216,0.000123072,19.9478
4659,9797.11,-0.825126,3.13449,1.11386,0.895811,3.92802,2.7076,-0.000184679,20.023
4702,9840.23,-0.412788,3.20836,1.11477,0.900163,3.93108,2.72152,-6.1512e-05,19.9478
4745,9883.33,-0.000270769,3.28468,1.11569,0.904252,3.93416,2.73443,0.000123119,19.9616
4788,9926.43,-3.29933,2.69869,1.11569,0.910683,3.93416,2.75392,-0.101872,19.7942
4831,9969.54,-0.825126,3.11849,1.11752,0.93075,3.94037,2.81122,-6.15597e-05,19.8387
4874,10012.6,-0.000270769,3.28253,1.12119,0.936799,3.95345,2.83009,6.15597e-05,19.9139
4918,10054.9,-0.000451223,3.28714,1.12119,0.936803,3.95345,2.8301,0.0,19.9446
4961,10098,-0.825126,3.13264,1.12119,0.942097,3.95345,2.84695,-0.000184679,19.8694
5004,10141.1,-0.412788,3.20959,1.12211,0.944625,3.95651,2.85501,0.0,19.8832
5047,10184.2,-0.412608,3.20712,1.12302,0.950017,3.95958,2.87211,-0.000123119,19.8832
5090,10227.3,0.412066,3.34593,1.12329,0.956064,3.96048,2.89128,0.0434572,19.8832
5133,10270.4,-0.412608,3.20743,1.12393,0.958527,3.96263,2.89919,-6.15597e-05,19.9616
5176,10313.5,-2.06214,2.88243,1.12393,0.979305,3.96263,2.95829,-0.000246239,19.9616
5219,10356.6,-0.825126,3.11541,1.12575,0.988547,3.96881,2.98662,0.0,19.5133
5262,10399.7,-0.000270769,3.28345,1.12942,0.988631,3.98185,2.98688,0.000123119,19.65
5306,10442,-0.412788,3.20805,1.12942,0.99093,3.98185,2.99426,-0.000123072,19.7252
5349,10485.1,-0.000270769,3.28284,1.13034,0.994592,3.98491,3.0058,6.1512e-05,19.455
5392,10528.2,0.412247,3.34962,1.13105,1.00009,3.98732,3.02323,0.00049243,19.7115
5435,10571.3,-0.412788,3.20282,1.13125,1.00483,3.98798,3.03842,-6.15597e-05,19.5885
5478,10614.4,-0.412788,3.20805,1.13217,1.00839,3.99105,3.04962,-0.000246191,19.9647
5521,10657.4,-2.06214,2.8892,1.13217,1.02134,3.99105,3.08672,-0.000307751,19.9033
5564,10700.5,-0.825306,3.11079,1.134,1.03643,3.99725,3.13096,-6.15597e-05,20.0675
5607,10743.6,-0.000451223,3.27791,1.13766,1.04042,4.01024,3.14339,6.15597e-05,19.7772
5651,10786,-0.412788,3.20989,1.13766,1.04077,4.01024,3.14451,-0.000307751,19.8218
5694,10829.1,0.412427,3.34778,1.13836,1.04638,4.01259,3.1623,0.00043087,19.7603
5737,10872.2,-0.825306,3.13141,1.13857,1.04941,4.0133,3.172,-0.0145883,19.791
5780,10915.2,-0.412788,3.20189,1.13948,1.05467,4.01635,3.18866,-6.15597e-05,19.6405
5823,10958.3,-0.000451223,3.27637,1.1404,1.05969,4.0194,3.20449,6.15597e-05,19.7603
5866,11001.4,-0.412608,3.20189,1.1404,1.06318,4.0194,3.21569,-6.15597e-05,19.7296
5909,11044.5,0.825125,3.38994,1.14167,1.08489,4.0237,3.27698,0.00135417,19.7296
5952,11087.6,-0.000270769,3.2736,1.14589,1.09222,4.03861,3.29975,-0.0561989,19.7296
5996,11129.9,-0.000451223,3.27853,1.14589,1.09222,4.03861,3.29977,0.000123119,19.8048
6039,11173,-0.824945,3.12926,1.14589,1.09567,4.03861,3.31081,-0.0144652,19.8048
6082,11216.1,-0.412608,3.20405,1.14681,1.09912,4.04167,3.32164,-0.000184679,19.7603
6125,11259.2,-0.412788,3.20097,1.14773,1.1045,4.04474,3.33869,-6.15597e-05,19.791
6168,11302.2,-0.825306,3.12218,1.14773,1.11016,4.04474,3.35668,-0.000246239,19.8218
6211,11345.3,-0.412608,3.20066,1.14864,1.11301,4.04779,3.36569,-0.000123119,19.8218
6254,11388.5,-2.06214,2.87319,1.14864,1.1301,4.04779,3.41427,-0.00036931,19.8525
6297,11431.5,-0.824945,3.10156,1.15048,1.14208,4.054,3.4499,0.0,19.7772
6340,11474.6,-0.000270769,3.27206,1.15415,1.14401,4.06702,3.45589,0.000123119,19.8832
6384,11517,-0.412608,3.20005,1.15415,1.14539,4.06702,3.46031,-0.000184631,19.9139
6427,11560.1,-0.000451223,3.27268,1.15507,1.14998,4.07008,3.47476,0.000123072,19.7772
6470,11603.1,-0.825126,3.11941,1.15507,1.15506,4.07008,3.49084,-0.000184679,19.791
6513,11646.2,-0.412608,3.19389,1.15598,1.15929,4.07313,3.50432,-6.15597e-05,19.8218
6556,11689.3,-0.000270769,3.27114,1.1569,1.16327,4.07619,3.51683,0.000123119,19.791
6599,11732.4,-3.29933,2.67714,1.1569,1.1705,4.07619,3.53837,-0.002462149,19.7158
6642,11775.4,-0.825126,3.09571,1.15873,1.18997,4.08235,3.59368,-6.15597e-05,19.6544
6685,11818.5,-0.000270769,3.26283,1.16238,1.19582,4.09529,3.61181,0.0,19.7296
6729,11861,-0.000270769,3.2696,1.16238,1.19582,4.09529,3.61182,6.1512e-05,19.8801
6772,11904,-0.825126,3.11295,1.16238,1.20134,4.09529,3.62925,-0.00036931,19.9108
6815,11947.2,-0.412608,3.19204,1.1633,1.20376,4.09834,3.63694,-0.000123072,19.9553
6858,11990.2,-0.412608,3.18927,1.16421,1.20915,4.10139,3.65394,0.0,19.9553
6901,12033.3,0.412608,3.32808,1.16459,1.21508,4.10265,3.67264,0.0009233,19.8801
6944,12076.4,-0.412788,3.18804,1.16513,1.21766,4.10443,3.68084,-6.15597e-05,19.9246
6987,12119.5,-2.06214,2.85257,1.16513,1.23886,4.10443,3.74059,-0.000307751,19.9384
7030,12162.6,1.64998,3.51736,1.16722,1.24763,4.1115,3.76732,0.0861143,19.8632
7073,12205.6,-0.000270769,3.25944,1.17061,1.24763,4.1235,3.76733,6.15597e-05,19.9384
7117,12248,-0.412608,3.18373,1.17061,1.25004,4.1235,3.77502,-0.000123119,20.0305
7160,12291.1,-0.412788,3.18804,1.17153,1.25361,4.12654,3.78616,-0.0141575,19.986
7203,12334.2,0.412427,3.32562,1.17236,1.25909,4.12929,3.8034,0.000553989,19.9108
7246,12377.3,-0.412608,3.17573,1.17245,1.26394,4.12959,3.8188,-6.15597e-05,19.9139
7289,12420.4,-0.412608,3.18035,1.17336,1.2675,4.13263,3.8299,-0.000184679,19.8832
7332,12463.5,-2.06214,2.8535,1.17336,1.28093,4.13263,3.86791,-0.000430918,20.0061
7375,12506.6,-0.825126,3.07663,1.1752,1.29567,4.13879,3.91069,-6.15597e-05,19.8525
7418,12549.7,-0.000270769,3.24713,1.17886,1.29943,4.15167,3.92227,0.000123119,20.0167
7462,12592,-0.412608,3.17819,1.17886,1.29989,4.15167,3.92374,-0.000307751,20.0475
7505,12635.1,0.412247,3.31546,1.17967,1.30539,4.15435,3.94097,0.000553989,19.986
7548,12678.2,-0.825126,3.0954,1.17977,1.30864,4.15469,3.95124,-0.014773,20.0613
7591,12721.2,-0.412608,3.16558,1.18068,1.31379,4.15772,3.96738,0.0,19.9553
7634,12764.4,-0.000270769,3.24036,1.1816,1.31869,4.16075,3.98267,0.000123072,19.8801
7677,12807.5,-0.412608,3.16404,1.1816,1.3223,4.16075,3.9941,-6.15597e-05,19.8801
7720,12850.5,0.824764,3.35301,1.1831,1.34388,4.16577,4.05408,0.00135417,19.9553
7763,12893.6,-0.000270769,3.23452,1.1871,1.35121,4.17975,4.07655,-0.05706067,19.9998
7807,12936,-0.000451223,3.23944,1.1871,1.35122,4.17975,4.07656,0.0,19.9691
7850,12979,-0.825126,3.08555,1.1871,1.35489,4.17975,4.08815,-0.014773,19.9384
7893,13022.1,-0.412608,3.16065,1.18802,1.35822,4.18277,4.0985,-0.000184631,19.9384
7936,13065.2,-0.412608,3.15603,1.18893,1.36362,4.18579,4.11534,-0.000307798,19.9077
7979,13108.3,-0.825126,3.07417,1.18893,1.3694,4.18579,4.13343,-0.00036931,19.9077
8022,13151.4,-0.412608,3.15419,1.18984,1.37213,4.1888,4.14194,-6.15597e-05,19.8463
8065,13194.5,-2.06232,2.81749,1.18984,1.38967,4.1888,4.19085,-0.00049243,19.9077
8108,13237.6,-0.825126,3.04801,1.19167,1.40133,4.19488,4.22499,0.0,19.8463
8151,13280.6,-0.000451223,3.22344,1.19533,1.40304,4.20766,4.2302,0.0,19.9215
8195,13323,-0.412608,3.14865,1.19533,1.40453,4.20766,4.23491,-0.000246239,19.877
8238,13366.1,-0.000270769,3.22036,1.19624,1.409,4.21067,4.24875,0.000123119,19.877
8281,13409.2,-0.825126,3.06063,1.19624,1.41432,4.21067,4.26526,-0.000369358,19.8463
8324,13452.3,-0.412427,3.13634,1.19715,1.41843,4.21366,4.27816,-6.15597e-05,19.7987
8367,13495.4,-0.000270769,3.21513,1.19807,1.42229,4.21667,4.29007,0.000123119,19.7234
8410,13538.4,-3.29933,2.60543,1.19807,1.43048,4.21667,4.31365,-0.002585268,19.6789
8453,13581.5,-0.824945,3.03139,1.1999,1.44922,4.22272,4.36585,-0.000184679,19.7848
8496,13624.6,-0.000270769,3.20374,1.20356,1.45483,4.23547,4.38285,6.15597e-05,19.6313
8540,13667,-0.000270769,3.20989,1.20356,1.45484,4.23547,4.38286,6.15597e-05,19.8294
8583,13710.1,-0.825126,3.04462,1.20356,1.46059,4.23547,4.40067,-0.000369358,19.877
8626,13753.2,-0.412608,3.12495,1.20448,1.46288,4.23846,4.40783,-0.000246239,19.8325
8669,13796.3,-0.412427,3.12002,1.20539,1.46828,4.24144,4.42446,-6.15597e-05,19.9553
8712,13839.4,0.412247,3.26037,1.20589,1.47409,4.24307,4.44237,0.000984859,19.9108
8755,13882.5,-0.412608,3.11541,1.20631,1.47679,4.24443,4.45077,-0.000123072,19.9722
8798,13925.5,-2.06214,2.7624,1.20631,1.49847,4.24443,4.51,-0.00049243,19.9108
8841,13968.6,1.65016,3.44903,1.20889,1.50663,4.25303,4.53434,0.0888842,19.9553
8884,14011.7,-0.000270769,3.18804,1.2118,1.50663,4.26312,4.53435,0.0,19.9998
8928,14054.1,-0.412788,3.10648,1.2118,1.50916,4.26312,4.54222,-0.000246239,19.9691
8971,14097.2,-0.412608,3.11079,1.21272,1.51272,4.26609,4.55305,-0.0146499,19.9691
9014,14140.2,-0.412608,3.10771,1.21363,1.51811,4.26906,4.56957,-0.0280071,19.9691
9057,14183.3,-0.412608,3.0951,1.21363,1.52305,4.26906,4.58487,-0.000123119,19.9384
9100,14226.4,-0.412608,3.10156,1.21455,1.52661,4.27203,4.59569,-0.000246191,19.9384
9143,14269.4,-2.06214,2.74916,1.21455,1.54046,4.27203,4.63354,-0.000677061,19.9829
9186,14312.5,-0.825306,2.97353,1.21638,1.55489,4.27799,4.67393,-0.000246239,19.877
9229,14355.6,-0.000451223,3.1625,1.22004,1.55844,4.29053,4.68448,0.000184679,19.9967
9273,14398.1,-0.412608,3.09294,1.22004,1.55902,4.29053,4.68626,-0.00043087,20.64291
9316,14441.1,-0.000270769,3.15634,1.22095,1.5644,4.29348,4.70265,-0.0134804,20.3283
9359,14484.2,-0.825306,2.99476,1.22095,1.56788,4.29348,4.7133,-0.000984859,20.072
9402,14527.3,-0.412608,3.05909,1.22186,1.57292,4.29641,4.72858,-0.000307751,19.8463
9445,14570.4,-0.000270769,3.12864,1.22278,1.5777,4.29934,4.74297,0.000123119,19.8908
9488,14613.4,-0.412608,3.03816,1.22278,1.58142,4.29934,4.75429,-0.000307751,19.768
9531,14656.5,0.824764,3.14926,1.2245,1.6029,4.3047,4.80969,0.00295463,19.9491
9574,14699.7,-0.000451223,3.02154,1.22826,1.61024,4.31707,4.83042,-0.00172353,20.0996
9618,14742,-0.000270769,3.02954,1.22826,1.61024,4.31707,4.83043,0.000123119,19.9046
9661,14785.1,-0.825126,2.84611,1.22826,1.61415,4.31707,4.84188,-0.001600409,19.963
9704,14828.2,-0.412608,2.91628,1.22918,1.61736,4.31987,4.85107,-0.000615549,19.963
9747,14871.2,-0.412608,2.88458,1.2301,1.62275,4.32266,4.86646,-0.000615549,19.662
9790,14914.3,-0.825126,2.75008,1.2301,1.62864,4.32266,4.88315,-0.0015389,19.8463
9833,14957.4,-0.412788,2.8301,1.23101,1.63125,4.32539,4.8905,-0.000738668,19.8939
9876,15000.5,-2.06214,2.13485,1.23101,1.64923,4.32539,4.93185,-0.009725571,19.9108
9920,15490.7,1.0996,3.38317,1.28759,1.65206,4.50821,4.93773,0.00049243,19.7234
9963,15706,1.09978,3.45765,1.35333,1.65206,4.73417,4.93773,0.0,19.6313
10006,15921.2,1.09942,3.48843,1.41908,1.65206,4.96248,4.93773,6.15597e-05,19.6451
10049,16136.5,1.09942,3.51397,1.48482,1.65206,5.19272,4.93773,0.0,19.8156
10092,16351.7,1.09978,3.52967,1.55057,1.65206,5.42434,4.93773,6.15597e-05,19.9384
10135,16567,1.09978,3.53521,1.61631,1.65206,5.65661,4.93773,0.0,20.5677
10178,16782.2,1.09978,3.53952,1.68206,1.65206,5.88916,4.93773,6.15597e-05,20.2945
10221,16997.4,1.09978,3.54475,1.74779,1.65206,6.12199,4.93773,0.0,20.5033
10264,17212.7,1.09942,3.55183,1.81354,1.65206,6.35527,4.93773,-6.15597e-05,20.6322
10307,17427.9,1.09923,3.56075,1.87928,1.65206,6.58906,4.93773,-6.15597e-05,20.29
10350,17643.2,1.0996,3.57152,1.94502,1.65206,6.82348,4.93773,6.15597e-05,20.1672
10393,17858.4,1.0996,3.58168,2.01076,1.65206,7.0586,4.93773,6.15597e-05,20.2762
10436,18073.6,1.09942,3.5943,2.0765,1.65206,7.29447,4.93773,0.0,20.3377
10479,18285.3,1.00847,3.60076,2.13957,1.65206,7.52152,4.93773,-6.1512e-05,20.307
10522,18500.6,0.722628,3.60076,2.19232,1.65206,7.71149,4.93773,0.0,20.3917
10565,18715.7,0.388246,3.60107,2.22484,1.65206,7.82857,4.93773,0.0,20.1176
10608,18930.8,0.217718,3.60076,2.24224,1.65206,7.89123,4.93773,-0.000123072,20.1039
10651,19145.8,0.139581,3.60138,2.25263,1.65206,7.92866,4.93773,0.0,19.7009
10694,19360.8,0.098618,3.60107,2.25962,1.65206,7.95381,4.93773,-6.15597e-05,19.7603
10737,19575.9,0.0740762,3.60076,2.26471,1.65206,7.97216,4.93773,-0.000123072,19.8325
10804,19873.5,-0.001533946,3.5466,2.2679,1.65207,7.98366,4.93773,-0.000246239,19.9754
10847,19916.7,-1.26363,3.25483,2.26903,1.65785,7.98763,4.95621,-0.0435188,19.8556
10890,19959.8,-2.41619,2.93228,2.26914,1.67311,7.98803,5.00302,0.000615549,19.8863
10933,20002.9,-0.125686,3.36501,2.27175,1.67466,7.99699,5.00776,-0.004308796,19.9478
10976,20046.1,-0.142649,3.32038,2.27189,1.68692,7.99746,5.04509,0.0156347,19.9478
11019,20089.2,-0.235041,3.29268,2.27225,1.69617,7.9987,5.0741,-0.003631687,20.1152
11062,20132.4,-0.0109175,3.33116,2.27243,1.70252,7.99931,5.09443,0.017112,19.8757
11105,20175.6,-0.236124,3.28037,2.27263,1.71324,7.99998,5.1272,0.0292997,20.2211
11148,20218.7,-1.66983,3.0357,2.27365,1.72403,8.00348,5.15994,-0.0447498,20.129
11191,20261.9,-0.665424,3.20282,2.2737,1.73296,8.00363,5.188,-0.008432913,20.0982
11234,20305,-0.385901,3.25391,2.27384,1.74053,8.0041,5.21182,0.0115106,20.0368
11277,20348.2,0.644852,3.44195,2.27517,1.74465,8.00864,5.225,0.0157578,19.9139
11320,20391.4,0.402863,3.39733,2.27683,1.74889,8.0143,5.2381,0.0146499,19.8832
11363,20434.5,-0.000451223,3.33023,2.27805,1.75346,8.01843,5.25216,0.000123119,19.8832
11407,20477.6,-0.431916,3.2576,2.27955,1.76049,8.02354,5.27211,-0.0140959,19.9309
11450,20520.7,-1.50526,3.06616,2.28068,1.76732,8.02739,5.29293,-0.009171581,20.0675
11493,20563.9,-0.788493,3.16373,2.28079,1.78286,8.02777,5.3392,0.0560758,20.129
11536,20607,-2.47989,2.89812,2.2834,1.78419,8.03659,5.34329,-0.0820517,20.04
11579,20650.1,0.181627,3.34685,2.28356,1.79554,8.03715,5.37743,0.0172967,20.04
11622,20693.3,-1.15337,3.11325,2.28393,1.80506,8.0384,5.40704,-0.0104027,20.1904
11665,20736.5,-0.015068,3.31146,2.28409,1.81146,8.03893,5.42735,0.0481354,20.1152
11708,20779.6,-0.454112,3.22744,2.28429,1.82195,8.0396,5.45931,-0.00744805,20.0845
11751,20822.8,-0.625363,3.19697,2.28531,1.83349,8.04308,5.49413,0.0352705,20.1459
11794,20865.9,-0.452488,3.22559,2.28536,1.8421,8.04323,5.52114,0.00701718,19.9955
11837,20909.1,-0.161957,3.2813,2.28551,1.84921,8.04375,5.54349,0.007632732,19.7115
11880,20952.3,0.21862,3.36162,2.28725,1.85302,8.04965,5.55561,-0.0179738,19.7762
11923,20995.4,0.16683,3.35024,2.28873,1.85724,8.0547,5.56864,-0.00640163,19.7317
11966,21038.6,-2.06304,2.96829,2.2897,1.86237,8.05797,5.58441,-0.070541,19.9436
12010,21081.6,-2.23934,2.93044,2.29121,1.87009,8.06308,5.60626,-0.0634624,20.1216
12053,21124.7,-1.45689,3.05724,2.29233,1.87732,8.06689,5.62817,6.15597e-05,20.2211
12096,21167.8,0.387525,3.3607,2.29262,1.89141,8.06787,5.67006,0.0414875,20.0368
12139,21210.9,-3.04868,2.78025,2.29505,1.89491,8.07606,5.68011,-0.0216055,19.9415
12182,21254.1,0.524489,3.3961,2.29532,1.90406,8.07699,5.70805,0.01188,19.8048
12225,21297.2,-0.335193,3.2419,2.29557,1.91385,8.07784,5.73841,0.003754806,19.8801
12268,21340.4,-0.211041,3.26652,2.29573,1.92018,8.07836,5.7584,0.0277609,19.8801
12311,21383.5,-0.682747,3.17542,2.29593,1.93081,8.07903,5.7907,-0.007878924,19.9553
12354,21426.7,-0.51276,3.20405,2.29695,1.94231,8.08249,5.82524,0.004247236,19.9108
12397,21469.9,-0.905969,3.13387,2.297,1.95094,8.08265,5.85219,-0.0154501,19.8356
12440,21513,-0.791742,3.15788,2.29715,1.9579,8.08316,5.87391,-0.0215439,19.7603
12483,21556.1,0.392938,3.37763,2.29932,1.96134,8.09053,5.88483,0.006463194,19.8218
12526,21599.3,0.00568421,3.30715,2.30041,1.96557,8.09418,5.89779,-0.001107979,19.897
12569,21642.4,-2.10202,2.93352,2.30136,1.97226,8.09735,5.9181,-0.002646828,19.791
12613,21684.6,0.055309,3.305,2.30287,1.97901,8.10248,5.93694,0.0781122,19.8218
12656,21727.7,-2.56416,2.84611,2.30398,1.98668,8.10622,5.96002,-0.01169529,19.7603
12699,21770.8,0.217898,3.31638,2.30446,1.99972,8.10783,5.99853,-0.009787083,19.7465
12742,21814,-1.93041,2.94552,2.3067,2.00485,8.11536,6.01305,0.0315773,19.7772
12785,21857.1,-1.29106,3.05909,2.30705,2.01333,8.11651,6.03904,-0.0622928,19.9309
12828,21900.3,0.0563918,3.28899,2.30724,2.02242,8.11716,6.06724,0.0136034,19.9616
12871,21943.3,-0.404127,3.21174,2.30739,2.0287,8.11764,6.08696,-0.00658631,20.0061
12914,21986.5,-1.74039,2.9723,2.30758,2.03986,8.11831,6.1206,-0.0366247,19.9754
12957,22029.6,0.11522,3.29268,2.30862,2.05092,8.12178,6.15361,0.0068325,19.9754
13000,22072.8,-0.802388,3.13264,2.30866,2.0598,8.12193,6.18113,-0.0122493,19.9446
13043,22115.9,0.883051,3.42872,2.30889,2.06637,8.1227,6.20156,0.0323774,19.8726
13086,22159,0.218259,3.32777,2.31106,2.06968,8.13002,6.212,-0.0184662,19.6945
13129,22202.1,-0.536399,3.19358,2.31207,2.074,8.13339,6.22518,-0.0198205,19.6532
13172,22245.3,-1.74797,2.96922,2.31301,2.08213,8.13654,6.24918,0.01071043,19.6564
13216,22287.6,-2.16012,2.90212,2.31453,2.08844,8.14163,6.26696,-0.0768811,19.6872
13259,22330.7,-1.97841,2.9249,2.31564,2.09644,8.14536,6.29074,0.006647825,19.7317
13302,22373.9,0.309929,3.32161,2.31625,2.1081,8.1474,6.32515,-0.00080018,19.6872
13345,22417,-1.21942,3.05447,2.31836,2.11406,8.15446,6.34208,0.0654321,19.6564
13388,22460.1,-1.3636,3.03293,2.3187,2.12248,8.1556,6.36783,-0.002585268,19.7179
13431,22503.3,-1.04835,3.08832,2.3189,2.13117,8.15626,6.39473,-0.0379789,19.7179
13474,22546.4,-0.507527,3.18404,2.31904,2.13742,8.15672,6.41433,-0.003754806,19.7179
13517,22589.6,-2.19892,2.8815,2.31924,2.14918,8.15739,6.44954,-0.0163734,19.6702
13560,22632.7,-0.265538,3.2222,2.3203,2.15931,8.16097,6.4797,0.009048462,20.1014
13603,22675.8,-1.14002,3.0674,2.32031,2.16845,8.16097,6.50797,-0.003693247,20.1597
13646,22718.9,0.0912194,3.28714,2.32072,2.17489,8.16236,6.52793,0.003077698,19.9923
13689,22762.141,0.11522,3.305,2.32281,2.17806,8.1694,6.5379,-0.00332394,19.9139
13732,22805.3,-1.40204,3.03508,2.32372,2.18298,8.17241,6.55292,-0.0307155,19.8525
13775,22848.4,-3.63642,2.6319,2.32465,2.19202,8.17554,6.5792,-0.0659245,19.7465
13819,22890.6,-1.36486,3.03077,2.32617,2.19762,8.18063,6.59516,0.0268376,19.7158
13862,22933.8,-1.81798,2.94521,2.32728,2.20579,8.18435,6.61934,0.0232059,19.7603
13905,22977,0.331223,3.32069,2.32809,2.21652,8.18704,6.6509,0.004554987,19.8218
13948,23020.1,-0.971113,3.08956,2.33,2.22324,8.19342,6.67007,0.0148961,19.8525
13991,23063.2,-1.69185,2.9686,2.33034,2.23152,8.19457,6.69534,-0.0114491,19.8525
14034,23106.3,-0.85472,3.11325,2.33054,2.24004,8.19524,6.72172,0.006340074,19.8525
14077,23149.5,-0.407194,3.19481,2.33068,2.24614,8.1957,6.74081,0.003570175,19.9277
14120,23192.6,-1.87609,2.92428,2.33088,2.25874,8.19637,6.7783,0.00043087,19.8218
14163,23235.8,-0.894781,3.10618,2.33195,2.26791,8.19995,6.8056,-0.0321928,19.8832
14206,23278.9,-0.931593,3.09202,2.33195,2.27757,8.19995,6.83537,-0.0286227,19.8525
14249,23321.9,-0.789035,3.12772,2.33238,2.28346,8.20139,6.85363,-0.009540891,19.8832
14292,23365.1,-0.000451223,3.27822,2.33448,2.2865,8.20844,6.86317,-0.006647873,19.9754
14335,23408.3,-1.84415,2.94767,2.33536,2.2924,8.21135,6.88104,-0.0163734,20.0675
14378,23451.4,-1.74382,2.94367,2.3363,2.30222,8.21449,6.90896,0.0635239,20.0982
14422,23493.6,-1.78442,2.95044,2.33781,2.30675,8.21956,6.92238,-0.0171121,20.0061
14465,23536.8,-1.88547,2.92244,2.33892,2.3152,8.22325,6.94724,-0.0212362,19.9277
14508,23579.9,0.292606,3.30746,2.33991,2.32494,8.22654,6.97577,-0.001846647,19.8801
14551,23623.1,-0.937007,3.08586,2.34163,2.33228,8.23229,6.99678,0.0194511,19.9553
14594,23666.2,-1.55759,2.97999,2.34198,2.34063,8.23345,7.02217,0.003693247,19.9691
14637,23709.3,-0.873307,3.09879,2.34218,2.34898,8.23411,7.04795,-0.0009233,19.877
14680,23752.5,-0.311012,3.20005,2.34232,2.35486,8.23457,7.06632,0.00326238,19.8156
14723,23795.7,-2.01937,2.88212,2.34252,2.36855,8.23524,7.10661,-0.006032276,19.9384
14766,23838.8,-0.159431,3.2182,2.34359,2.37677,8.2388,7.13129,-0.000553989,19.9998
14809,23881.9,-0.366051,3.17481,2.34359,2.38658,8.23881,7.16135,0.0307771,20.0305
14852,23925.1,-0.788854,3.11387,2.34402,2.39213,8.24024,7.17853,-0.0204976,19.9553
14895,23968.2,-0.000451223,3.26591,2.34613,2.39487,8.24727,7.18708,0.0,19.986
14938,24011.4,-0.2585,3.20774,2.347,2.40126,8.25018,7.20636,0.0545985,20.092
14981,24054.6,0.0475495,3.24436,2.34796,2.41069,8.25335,7.23296,0.0634007,20.1089
15025,24097.6,0.0964525,3.25575,2.34946,2.41613,8.25836,7.24902,0.0645088,20.0475
15068,24140.8,-1.13316,3.03262,2.35057,2.4249,8.26204,7.27466,0.025545,20.0475
15111,24183.9,0.32599,3.30069,2.35182,2.43329,8.26619,7.29907,0.00172353,20.0475
15154,24227.1,-1.06242,3.04708,2.35328,2.44132,8.27105,7.32206,-0.00418568,20.0813
15197,24270.3,-1.11187,3.03693,2.35362,2.44996,8.27214,7.34814,-0.00769429,20.0675
15240,24313.5,0.185597,3.26591,2.35391,2.45767,8.27311,7.37185,0.000615549,20.0845
15283,24356.6,-0.817727,3.09171,2.35396,2.46384,8.27326,7.39102,-0.0109566,20.2487
15326,24399.7,-0.307223,3.16588,2.35437,2.4775,8.27463,7.4308,0.0610002,20.1258
15369,24442.8,-1.14669,3.02492,2.35523,2.48592,8.27748,7.45601,-0.034655,20.1089
15412,24486,-0.589994,3.11664,2.35523,2.49547,8.27749,7.4851,-0.007509613,20.1534
15455,24529.1,-0.502113,3.13911,2.35566,2.50112,8.27892,7.50246,0.009664011,20.1534
15498,24572.3,-0.000270769,3.24436,2.35777,2.50329,8.28591,7.50918,0.0,20.0782
15541,24615.4,0.406292,3.30346,2.35885,2.50968,8.28946,7.52833,0.0119415,20.0475
15584,24658.6,0.640341,3.329,2.35992,2.51923,8.29298,7.55502,0.0209899,20.092
15628,24701.7,0.152213,3.24837,2.36127,2.52466,8.29746,7.57093,0.003077698,20.1534
15671,24744.8,-0.0506174,3.1982,2.36222,2.53387,8.3006,7.59768,0.0381636,20.0475
15714,24787.9,0.433721,3.2973,2.36373,2.54184,8.30555,7.62059,0.00418568,20.0613
15757,24831.1,-1.0839,3.01784,2.36493,2.55035,8.30953,7.64484,-0.000430918,20.0167
15800,24874.3,-0.0143462,3.20128,2.36528,2.55888,8.31065,7.67036,0.0179122,19.9891
15843,24917.5,-1.14471,3.00615,2.36559,2.56673,8.31166,7.69424,-0.00036931,20.1735
15886,24960.6,-1.16131,3.0003,2.36562,2.57323,8.31177,7.71418,-0.0264683,20.3239
15929,25003.7,-1.34537,2.94552,2.36603,2.58724,8.31312,7.75442,-0.0376711,20.2317
15972,25046.9,-1.06567,3.00553,2.3669,2.59524,8.31597,7.77831,0.002523708,20.1227
16015,25090,-0.954331,3.01723,2.3669,2.60473,8.31597,7.80689,-0.0131726,20.1227
16058,25133.2,-0.905428,3.03508,2.36733,2.61011,8.31737,7.82328,-0.0140343,20.1227
16101,25176.3,-0.0017144,3.21359,2.36943,2.61179,8.3243,7.82842,0.0,20.0613
16144,25219.5,0.103851,3.22128,2.37074,2.61818,8.32855,7.84736,-0.008740664,20.1227
16187,25262.6,0.730568,3.317,2.37212,2.62762,8.33309,7.87335,0.004370356,20.1227
16231,25305.7,-0.709455,3.06493,2.373,2.63313,8.33595,7.88932,-0.0294229,20.0305
16274,25348.8,-0.210319,3.13634,2.37392,2.64229,8.33896,7.91556,-0.004493427,20.0305
16317,25392,0.148062,3.21297,2.37575,2.65024,8.34489,7.93803,-0.009294653,20.0305
16360,25435.2,-1.55145,2.88643,2.3766,2.65995,8.34767,7.96538,-0.0171736,20.0305
16403,25478.3,-0.11937,3.13757,2.37694,2.66785,8.34878,7.98875,0.0238214,20.0613
16446,25521.5,-0.626085,3.0517,2.37725,2.67544,8.34978,8.01149,-0.009848642,20.0613
16489,25564.6,-1.41756,2.90459,2.37728,2.68258,8.34988,8.033,-0.0126186,20.1227
16532,25607.8,-1.40745,2.87719,2.3777,2.69705,8.3512,8.07368,-0.00295463,20.1534
16575,25651,-1.53269,2.87104,2.37855,2.7044,8.35398,8.09541,-0.0162503,20.1534
16618,25694.1,-0.0103762,3.12864,2.3786,2.71363,8.35414,8.1227,0.03385482,20.2424
16661,25737.3,-0.915533,2.97599,2.37898,2.71906,8.35536,8.139,-0.0281302,20.2117
16704,25780.4,-1.42568,2.91197,2.38108,2.72087,8.36217,8.1444,-0.0405026,20.0305
16747,25823.6,-0.832163,3.00492,2.38239,2.7268,8.36638,8.16164,-0.0305309,20.0305
16790,25866.7,0.372908,3.19851,2.38423,2.73604,8.3723,8.18641,-0.0112644,20.1058
16834,25909.7,0.368036,3.17758,2.38466,2.74179,8.37364,8.20268,0.0376096,20.0305
16877,25952.8,0.0713694,3.08771,2.38557,2.75097,8.37655,8.22815,0.0100949,20.0305
16920,25996,0.766117,3.21389,2.38758,2.75864,8.38285,8.24881,0.0222826,20.0305
16963,26039.1,-0.756192,2.85565,2.38824,2.76931,8.38494,8.27745,0.0269608,20.0305
17006,26082.2,-1.66694,2.66514,2.38859,2.77693,8.386,8.29865,-0.0389022,20.0613
17049,26125.4,-0.631859,2.81256,2.38889,2.78435,8.38692,8.31931,-0.008309794,19.9108
17092,26168.5,-0.817005,2.70638,2.38893,2.79183,8.38702,8.33981,-0.002893019,19.8048
17135,26211.7,-0.908676,2.46232,2.38934,2.80645,8.38819,8.37506,0.0152039,19.8048
17178,26254.8,-1.32986,2.28658,2.3902,2.81352,8.39058,8.3923,0.004431868,19.6851
17222,26684.1,1.0996,3.28099,2.42381,2.81739,8.49611,8.40109,0.00086174,19.8801
17265,26899.1,1.0996,3.44811,2.48949,2.81739,8.71897,8.40109,0.000123119,19.9553
17308,27114.1,1.0996,3.47581,2.55518,2.81739,8.94632,8.40109,0.0,19.9754
17351,27329.2,1.0996,3.50505,2.62087,2.81739,9.1757,8.40109,0.0,20.0305
17394,27544.3,1.0996,3.52505,2.68657,2.81739,9.40667,8.40109,6.15597e-05,20.1058
17437,27759.4,1.0996,3.53367,2.75226,2.81739,9.63856,8.40109,0.000123119,20.0613
17480,27974.4,1.0996,3.53736,2.81796,2.81739,9.87081,8.40109,0.0,20.2117
17523,28189.5,1.0996,3.54198,2.88365,2.81739,10.1033,8.40109,0.0,20.7074
17566,28404.6,1.0996,3.54844,2.94935,2.81739,10.3362,8.40109,6.15597e-05,20.7074
17609,28619.7,1.09942,3.55675,3.01504,2.81739,10.5696,8.40109,0.0,20.3377
17652,28834.8,1.09942,3.56629,3.08074,2.81739,10.8036,8.40109,0.0,20.3621
17695,29049.9,1.0996,3.57676,3.14643,2.81739,11.0382,8.40109,0.0,20.6322
17738,29264.9,1.0996,3.58784,3.21212,2.81739,11.2735,8.40109,0.000123072,20.1058
17781,29475.3,1.08245,3.60107,3.27631,2.81739,11.5043,8.40109,0.0,20.0305
17824,29690.3,0.885397,3.60138,3.33597,2.81739,11.7191,8.40109,6.15597e-05,20.0305
17867,29905.3,0.518173,3.60107,3.37817,2.81739,11.8711,8.40109,6.1512e-05,20.0305
17910,30120.3,0.267523,3.60107,3.40064,2.81739,11.952,8.40109,0.0,19.8832
17953,30335.4,0.15925,3.60076,3.41296,2.81739,11.9964,8.40109,-0.000123072,19.9108
17996,30550.4,0.106919,3.60107,3.42074,2.81739,12.0244,8.40109,0.0,19.7741
18039,30765.5,0.0776853,3.60076,3.42619,2.81739,12.044,8.40109,-6.1512e-05,20.0675
18082,30980.5,0.0598204,3.60107,3.43026,2.81739,12.0587,8.40109,0.0,19.9553
18149,31202.8,-2.1437,3.11602,3.43148,2.81932,12.063,8.40737,-0.0325006,19.9553
18192,31246,-0.204184,3.3844,3.43288,2.82774,12.068,8.43419,0.0117568,19.9553
18235,31289.1,-1.05773,3.19297,3.43309,2.83558,12.0688,8.45953,0.00129261,19.8801
18278,31332.2,-0.000270769,3.40594,3.4356,2.83603,12.0779,8.46099,0.0,19.9108
18321,31375.3,-3.66547,2.69746,3.43694,2.8506,12.0827,8.50341,-0.00166197,19.9139
18364,31418.4,-1.48992,3.04062,3.43694,2.87459,12.0827,8.57296,0.0254219,19.9309
18407,31461.6,0.008932379,3.30223,3.43704,2.88971,12.083,8.61789,0.0508437,20.023
18450,31504.7,0.784162,3.47581,3.44278,2.8924,12.103,8.62632,0.0217902,20.0675
18493,31547.9,-1.7357,3.01754,3.44308,2.90291,12.1041,8.65776,-0.04561162,20.0199
18536,31591.1,-1.71242,3.01631,3.44622,2.91211,12.1152,8.68493,-0.0222826,19.791
18579,31634.2,-2.0006,2.96645,3.44822,2.9188,12.1223,8.70423,0.0561989,19.8356
18622,31677.4,0.984286,3.50289,3.451,2.92641,12.1321,8.7274,-0.007386541,19.8801
18665,31720.6,-0.352517,3.2616,3.45129,2.93314,12.1331,8.74861,-0.0142806,19.8801
18708,31763.7,-0.106378,3.30746,3.45256,2.9365,12.1376,8.75907,-0.004739666,19.8186
18751,31806.9,-0.000270769,3.33054,3.45412,2.94117,12.1431,8.77379,6.1512e-05,19.8801
18794,31850.1,0.723891,3.45119,3.45515,2.94767,12.1467,8.79396,-0.006032324,19.8801
18837,31893.2,0.375434,3.38378,3.4557,2.95278,12.1486,8.80995,0.0450576,19.8801
18880,31936.4,0.617062,3.43334,3.45835,2.95981,12.1578,8.8315,-0.009417772,19.8801
18923,31979.5,-2.33895,2.91074,3.45846,2.96911,12.1581,8.86006,-0.0509668,19.9246
18966,32022.6,-0.825667,3.18096,3.45992,2.9743,12.1631,8.87628,0.00560145,19.9246
19009,32065.7,0.185597,3.35147,3.46048,2.98136,12.165,8.89856,0.0203129,19.986
19052,32108.9,-0.352336,3.26068,3.46102,2.98579,12.1669,8.91276,0.008063602,19.9277
19095,32152.1,-0.760884,3.17696,3.46253,2.99401,12.1721,8.93788,0.0577993,20.0368
19138,32195.2,1.05322,3.50751,3.46405,2.99733,12.1773,8.94848,0.03453188,20.1089
19181,32238.4,-1.9028,2.98768,3.4644,3.0011,12.1785,8.95982,-0.0172967,20.0167
19224,32281.6,-0.607859,3.2222,3.46611,3.00469,12.1844,8.97105,-0.015327,20.0613
19267,32324.7,0.589633,3.42595,3.46721,3.0122,12.1882,8.99455,0.00036931,19.9553
19310,32367.9,-0.000451223,3.32377,3.46875,3.01667,12.1936,9.00775,0.000123119,19.986
19353,32411.1,0.11143,3.33823,3.46898,3.02214,12.1943,9.02498,0.0256065,20.0305
19396,32454.2,-0.979053,3.1428,3.46957,3.0272,12.1964,9.04049,0.00129261,19.986
19439,32497.4,-0.000451223,3.32377,3.47185,3.03217,12.2045,9.05592,6.15597e-05,19.9553
19482,32540.5,0.690868,3.44226,3.47267,3.03663,12.2072,9.06956,0.0148961,19.8801
19526,32582.8,0.0785876,3.32531,3.4727,3.04095,12.2073,9.08272,0.0442574,19.8801
19569,32625.9,-0.487316,3.23051,3.47413,3.0478,12.2122,9.1038,0.00116954,19.9553
19612,32669.1,1.4291,3.56629,3.476,3.05526,12.2189,9.12724,-0.0164965,19.9246
19655,32712.2,-0.000451223,3.32746,3.47681,3.05527,12.2218,9.12726,0.0,19.8801
19698,32755.4,-2.37631,2.86735,3.47814,3.07587,12.2264,9.18544,0.0102795,19.8048
19741,32798.6,-1.22952,3.05939,3.47814,3.09655,12.2264,9.24595,0.008617592,19.8356
19784,32841.7,0.616882,3.38532,3.47878,3.10966,12.2286,9.2844,0.060754,19.8525
19827,32884.9,-0.000451223,3.31823,3.4843,3.11161,12.2477,9.29049,-6.15597e-05,19.9446
19870,32928,-0.714868,3.16834,3.4843,3.12379,12.2477,9.32687,-0.003693247,19.808
19913,32971.2,1.62472,3.57614,3.48781,3.13187,12.26,9.35037,0.0541677,19.8218
19956,33014.3,-1.36486,3.04739,3.48944,3.14194,12.2658,9.3791,-0.0120031,19.791
19999,33057.5,-0.000270769,3.31177,3.49247,3.14563,12.2764,9.39084,0.0,19.7603
20042,33100.6,-0.000270769,3.30869,3.49374,3.15238,12.2809,9.41194,-0.0337317,19.7296
20085,33143.8,-0.960827,3.13972,3.49379,3.15629,12.281,9.42411,-0.0234521,19.8048
20128,33186.9,-0.000451223,3.31053,3.49534,3.16041,12.2865,9.43696,6.15597e-05,19.8048
20171,33230.1,-0.000451223,3.30715,3.49684,3.16692,12.2917,9.45699,0.0,19.7296
20214,33273.2,-0.000270769,3.30561,3.49795,3.17201,12.2955,9.47281,-0.0342241,19.7741
20257,33316.3,-0.000270769,3.30376,3.49962,3.17905,12.3012,9.49424,0.001600409,19.8356
20300,33359.4,-0.965519,3.11449,3.49967,3.19103,12.3014,9.53062,0.01212616,19.8048
20343,33402.6,-0.366231,3.2259,3.50113,3.19564,12.3063,9.54511,0.0395793,19.8048
20386,33445.7,-0.399254,3.21974,3.50173,3.20171,12.3084,9.56421,0.00744805,19.8801
20429,33488.9,-0.928165,3.13203,3.50223,3.20554,12.31,9.57641,-0.0296691,19.8356
20472,33532.013,0.0740762,3.29699,3.50383,3.2138,12.3156,9.60141,-0.00855603,19.8356
20515,33575.2,-0.000451223,3.29669,3.5056,3.21657,12.3216,9.61015,-6.15597e-05,19.8525
20558,33618.3,-1.05286,3.09848,3.5056,3.22273,12.3216,9.62869,0.0130495,19.9446
20601,33661.5,-1.82394,2.97106,3.5073,3.22641,12.3274,9.64002,-0.04598093,19.9584
20644,33704.6,-0.000270769,3.29392,3.50876,3.23143,12.3324,9.65572,6.15597e-05,19.9415
20687,33747.8,-0.399074,3.22436,3.50994,3.23591,12.3365,9.66882,-0.0136034,19.8801
20730,33791,-0.000451223,3.29115,3.51077,3.24133,12.3393,9.68569,0.0,19.8356
20773,33834.1,-0.320396,3.2259,3.51084,3.24719,12.3395,9.7036,-0.0149577,19.8801
20816,33877.2,-9.03152e-05,3.29176,3.51304,3.25136,12.3472,9.71631,0.000123119,19.8048
20859,33920.4,-0.000270769,3.29022,3.51389,3.25581,12.3501,9.72976,0.000184679,19.8801
20903,33962.8,-0.167371,3.25944,3.51455,3.26012,12.3523,9.74274,-0.0100333,19.8801
20946,34006,-1.30369,3.05262,3.51533,3.26834,12.355,9.76788,-0.0459194,19.8801
20989,34049.1,-0.000270769,3.28899,3.51799,3.27445,12.3644,9.78682,-6.15597e-05,19.8048
21032,34092.2,-3.06763,2.75008,3.51799,3.27729,12.3644,9.79515,-0.0491818,19.7296
21075,34135.3,-0.942421,3.09171,3.51932,3.29677,12.369,9.84959,6.15597e-05,19.7741
21118,34178.5,-0.640702,3.14218,3.51936,3.31677,12.3691,9.90747,-0.007140255,19.7296
21161,34221.6,-1.06693,3.0754,3.52012,3.33041,12.3716,9.94715,-0.0281918,19.7296
21204,34264.8,-0.000270769,3.2893,3.52546,3.33089,12.39,9.94865,0.0,19.7603
21247,34307.9,0.208514,3.30653,3.52577,3.34382,12.3911,9.98704,0.00652475,19.8525
21290,34351.1,-0.000451223,3.28037,3.53061,3.35115,12.408,10.0079,-0.0283765,19.9139
21333,34394.3,-0.603167,3.15696,3.53061,3.36233,12.408,10.0399,-0.01822,20.0061
21376,34437.4,-0.334652,3.22497,3.53363,3.36541,12.4185,10.0496,0.0118799,19.8218
21419,34480.5,-0.000451223,3.28284,3.53491,3.37165,12.423,10.0689,6.1512e-05,19.7158
21462,34523.6,-0.709815,3.15234,3.53496,3.377,12.4231,10.0855,-0.0118799,19.8048
21505,34566.7,-0.000270769,3.28499,3.53652,3.37966,12.4286,10.0937,0.0,19.8048
21548,34609.8,-9.03152e-05,3.28314,3.53803,3.38617,12.4338,10.1136,6.15597e-05,19.7296
21591,34652.9,-0.978872,3.11141,3.53914,3.39157,12.4375,10.1302,-0.034101,19.7296
21634,34696,-0.956315,3.10402,3.5408,3.40101,12.4432,10.1586,0.0419184,19.8048
21677,34739.2,-0.366412,3.20282,3.5409,3.41081,12.4435,10.1883,0.000615549,19.7296
21720,34782.3,-0.571227,3.16927,3.54231,3.41632,12.4483,10.2055,0.006032276,19.8801
21763,34825.5,-0.241718,3.23267,3.54298,3.4212,12.4505,10.2208,-0.0126186,20.0305
21806,34868.7,-1.05286,3.09171,3.54347,3.42568,12.4522,10.2349,-0.0408719,20.0305
21849,34911.8,0.120814,3.2973,3.54554,3.43303,12.4593,10.2569,0.001107979,19.8801
21892,34955,-0.000270769,3.28222,3.5468,3.43579,12.4636,10.2656,0.0,19.9108
21935,34998.1,0.255432,3.31269,3.54691,3.4427,12.4639,10.2863,0.004678106,19.8048
21978,35041.3,-1.0857,3.08155,3.54851,3.44726,12.4694,10.3003,-0.0248679,19.8832
22021,35084.5,-0.000451223,3.2816,3.54997,3.45063,12.4743,10.3109,6.15597e-05,20.0675
22064,35127.6,-0.237026,3.23236,3.55115,3.45675,12.4784,10.329,0.0398255,20.0506
22107,35170.8,-0.000270769,3.28007,3.55197,3.46055,12.4812,10.3408,0.000123119,19.8663
22150,35213.9,-0.547587,3.17296,3.55204,3.46734,12.4814,10.3615,0.01132598,19.7603
22193,35257,-0.000270769,3.28099,3.55426,3.47056,12.4891,10.3712,6.15597e-05,19.8218
22237,35299.7,-0.000270769,3.28037,3.55511,3.47504,12.492,10.3847,0.000123072,19.8218
22280,35342.8,-1.88421,2.94183,3.55578,3.48123,12.4943,10.4032,-0.0282534,19.9139
22323,35386,-0.46891,3.17973,3.55655,3.48972,12.4969,10.4292,0.0122493,19.9277
22366,35429.1,-0.000451223,3.27883,3.55921,3.49368,12.5062,10.4415,6.15597e-05,19.9584
22409,35472.2,0.0693844,3.27668,3.55933,3.49928,12.5067,10.4576,0.0422262,19.9277
22452,35515.4,-1.90298,2.90397,3.56054,3.51926,12.5108,10.5134,0.0111413,19.8525
22495,35558.5,-0.385179,3.16711,3.56058,3.53839,12.511,10.5685,0.0328084,19.9277
22538,35601.7,0.733274,3.37701,3.56188,3.54999,12.5153,10.6019,0.009910202,19.8218
22581,35644.8,-1.53142,3.01077,3.56668,3.55048,12.5318,10.6034,-0.0531828,19.791
22624,35688,0.974902,3.43918,3.56947,3.56302,12.5415,10.6404,-0.0121262,19.8832
22667,35731.1,-0.000270769,3.26837,3.57181,3.57034,12.5496,10.6611,6.15597e-05,19.9446
22710,35774.3,-0.58043,3.14772,3.57182,3.58232,12.5497,10.6954,-0.000123119,20.023
22753,35817.5,-1.49894,3.00153,3.57484,3.58672,12.5601,10.709,-0.002400589,20.0537
22796,35860.7,-0.000270769,3.27083,3.57612,3.59084,12.5645,10.7218,6.15597e-05,20.129
22839,35903.8,-1.87952,2.93505,3.57617,3.59739,12.5647,10.742,-0.0549063,20.0982
22882,35947,-1.10447,3.07324,3.57771,3.60046,12.5701,10.7513,0.0151423,19.8525
22925,35990.1,-0.422713,3.19789,3.57922,3.60536,12.5752,10.7662,-0.0146499,19.897
22968,36033.3,-1.99573,2.90828,3.58033,3.61384,12.579,10.7919,-0.0100333,19.9415
23011,36076.4,-1.5455,2.9763,3.582,3.62337,12.5847,10.8203,0.0256681,19.9108
23054,36119.6,0.19498,3.28714,3.58232,3.6302,12.5858,10.8412,0.0186509,19.9553
23097,36162.7,0.566174,3.35393,3.58387,3.63593,12.5909,10.8589,0.0136035,20.0305
23140,36205.8,-0.36172,3.19512,3.58418,3.64079,12.592,10.8741,0.000984907,20.0613
23183,36249,0.673183,3.38225,3.58598,3.6451,12.5981,10.8876,-0.00406256,20.0305
23226,36292.1,-0.501572,3.16619,3.58677,3.65307,12.6007,10.9114,0.0118799,20.0305
23269,36335.2,-0.000451223,3.26468,3.58799,3.654954,12.6049,10.9172,6.15597e-05,20.0613
23312,36378.4,0.6859954,3.37886,3.58955,3.66186,12.6102,10.9378,-0.0120646,20.0613
23355,36421.5,-0.556971,3.14988,3.58969,3.66791,12.6107,10.9563,-0.0114491,20.0305
23398,36464.7,-0.000270769,3.26221,3.59116,3.66981,12.6156,10.9622,6.15597e-05,20.0305
23441,36507.8,-1.49912,2.98891,3.59235,3.67713,12.6197,10.9839,-0.0265298,20.092
23484,36551,-0.046467,3.25083,3.59316,3.67984,12.6224,10.9923,0.009048462,20.201
23527,36594.1,-1.27626,3.02061,3.59323,3.68789,12.6226,11.0168,-0.0269608,20.1565
23570,36637.2,-1.71242,2.95537,3.59545,3.69082,12.6303,11.0254,-0.0449345,20.1258
23614,36679.8,-0.000451223,3.25729,3.5963,3.69422,12.6331,11.0355,6.15597e-05,20.1089
23657,36722.9,0.380126,3.31515,3.5976,3.70109,12.6375,11.0559,-0.003939486,20.2148
23700,36766.1,0.129295,3.25852,3.59778,3.70965,12.6381,11.082,0.0260374,20.1227
23743,36809.3,-0.000451223,3.25298,3.6004,3.71287,12.6473,11.0918,-6.15597e-05,20.1534
23786,36852.4,1.29016,3.4598,3.60085,3.71978,12.6488,11.1118,0.113198,20.0167
23829,36895.6,-3.62884,2.55988,3.60174,3.74378,12.6518,11.1774,-0.0313926,20.0475
23872,36938.7,-0.784343,3.06801,3.60178,3.75899,12.652,11.2217,-0.015327,20.1227
23915,36981.9,0.91842,3.39086,3.60507,3.76921,12.6631,11.2504,-0.0153885,19.9722
23958,37025.1,-1.99573,2.87442,3.60788,3.77406,12.6726,11.2643,0.0181585,20.0167
24001,37068.2,-0.000631677,3.23636,3.61103,3.78225,12.6835,11.2885,-6.15597e-05,20.0167
24044,37111.4,-0.000270769,3.23328,3.61302,3.78958,12.6903,11.309,6.15597e-05,19.9415
24087,37154.5,-0.0558506,3.1982,3.61304,3.80271,12.6904,11.3463,0.02406764,20.0613
24130,37197.7,-0.798418,3.07232,3.61605,3.80839,12.7007,11.3635,0.0176661,19.8356
24173,37240.8,-2.07008,2.8655,3.61732,3.81125,12.705,11.3723,-0.0395177,20.0167
24216,37284,1.20191,3.42964,3.61843,3.8181,12.7089,11.3931,0.0310233,19.9553
24259,37327.2,-1.6101,2.9289,3.61892,3.82277,12.7105,11.4069,-0.003754806,19.8939
24302,37370.3,-0.937548,3.05447,3.62043,3.82644,12.7156,11.4181,0.00997181,19.8325
24345,37413.5,-0.742117,3.06986,3.62153,3.83602,12.7193,11.4465,0.0123108,19.9077
24388,37456.7,0.0138046,3.20128,3.6232,3.84392,12.7249,11.4698,0.0157578,19.9077
24431,37499.9,-0.125145,3.1825,3.62353,3.85016,12.726,11.4886,-0.004678106,19.877
24474,37543,-1.15066,3.00276,3.62519,3.85636,12.7315,11.5074,-0.0117568,19.9384
24517,37586.2,0.162318,3.23944,3.62578,3.86044,12.7334,11.52,-0.005847645,20.3897
24560,37629.3,-0.593784,3.11172,3.62731,3.86452,12.7385,11.5325,-0.02080531,20.27
24603,37672.5,-0.552821,3.10033,3.62797,3.87362,12.7407,11.5593,0.0110797,20.5708
24646,37715.6,-9.03152e-05,3.21482,3.62918,3.87429,12.7448,11.5614,6.15597e-05,20.2393
24689,37758.8,-0.204364,3.17388,3.63089,3.88122,12.7504,11.5817,-0.00701714,20.5401
24732,37801.9,-0.375615,3.12187,3.63089,3.88867,12.7504,11.6041,0.00695562,20.4066
24775,37845.1,-2.2231,2.79594,3.63235,3.893,12.7553,11.6164,0.004985857,20.3314
24818,37888.3,0.0276996,3.19389,3.63355,3.89802,12.7593,11.6314,0.0110182,20.1503
24861,37931.4,-0.872585,3.0477,3.63436,3.89986,12.762,11.6371,-0.0192665,20.1058
24904,37974.6,1.75446,3.48873,3.63519,3.90909,12.7648,11.6643,0.0724493,19.9998
24947,38017.74,-0.260485,3.12957,3.63662,3.91296,12.7697,11.6756,0.0127417,20.1058
24991,38060.8,-0.000270769,3.19943,3.63748,3.91356,12.7725,11.6773,0.0,20.0613
25034,38103.9,-0.677514,3.05232,3.63886,3.9232,12.7771,11.7053,0.0432725,20.1534
25077,38147.1,0.129476,3.1902,3.63901,3.93025,12.7776,11.7266,0.0294844,20.2148
25120,38190.2,-0.000270769,3.19112,3.64158,3.9322,12.7864,11.7324,6.15597e-05,20.2286
25163,38233.3,-2.45535,2.74085,3.64291,3.94034,12.7909,11.7554,-0.065309,20.1365
25206,38276.5,-2.11176,2.73623,3.64291,3.96679,12.7909,11.8257,-0.0273916,20.0305
25249,38319.6,-2.49198,2.66083,3.643,3.98218,12.7911,11.8686,0.0382867,20.0305
25292,38362.8,1.44805,3.41641,3.64735,3.98856,12.8054,11.8862,0.0464734,20.0305
25335,38405.9,-1.61497,2.83134,3.64906,3.99726,12.8112,11.9104,-0.003016138,20.0305
25378,38449.1,-2.51056,2.70084,3.65221,4.00321,12.8218,11.9277,-0.0565682,20.0305
25421,38492.2,-1.68463,2.8458,3.65422,4.00964,12.8285,11.9449,-0.060877,19.9246
25464,38535.3,0.937187,3.25668,3.65454,4.02253,12.8296,11.9801,0.0480122,19.9246
25507,38578.5,-1.08155,2.8895,3.65725,4.02868,12.8385,11.9979,-0.0259143,19.9553
25550,38621.6,-0.380487,3.01354,3.65852,4.03229,12.8427,12.0083,-0.006340074,19.9553
25593,38664.8,-0.000451223,3.08063,3.66012,4.03732,12.848,12.0229,6.15597e-05,19.9553
25636,38708,-0.529181,2.93598,3.66012,4.0436,12.848,12.0406,-6.15597e-05,19.9246
25679,38751.1,-1.5547,2.75008,3.66162,4.04753,12.8528,12.0518,-0.002339077,19.8048
25722,38794.3,0.241357,3.02615,3.6628,4.05595,12.8565,12.075,0.0190818,19.7296
25765,38837.4,-0.385179,2.87719,3.66445,4.0637,12.8617,12.096,-0.005355215,19.8525
25808,38880.6,0.807621,3.08648,3.66556,4.0694,12.8651,12.1114,0.005539894,19.9309
25851,38923.7,-0.273839,2.80764,3.66638,4.07724,12.8676,12.1327,0.0144037,19.8832
25894,38966.9,-0.923653,2.6753,3.667,4.08107,12.8694,12.1432,0.001846647,19.8218
25937,39010,-1.2436,2.54542,3.66851,4.08713,12.8739,12.1589,0.02080531,19.791
25980,39053.2,0.115942,2.74085,3.66933,4.09346,12.8762,12.1748,0.002215958,19.7296
26023,39096.3,-0.830178,2.61374,3.67038,4.09371,12.8793,12.1754,-0.0321312,19.7603
26066,39139.5,-0.000451223,2.67499,3.67209,4.10052,12.884,12.1916,0.000369358,19.7296
26097,39169.1,-0.000631677,2.15578,3.67209,4.10678,12.884,12.2058,0.0,19.7603