File: Battery Data/RAW/A123_14.csv
,Test_Time(s),Current(A),Voltage(V),Charge_Capacity(Ah),Discharge_Capacity(Ah),Charge_Energy(Wh),Discharge_Energy(Wh),dV/dt(V/s),Temperature (C)_1
1,8.01172,-1.0996,2.59712,0.0,0.001530281,0.0,0.00399973,-0.0033855,37.3616
67,333.675,1.09942,3.3407,0.0535007,0.0108442,0.169654,0.0267536,0.000553989,38.0649
109,543.887,1.09978,3.44503,0.11771,0.0108442,0.388901,0.0267536,6.15597e-05,38.3775
151,754.092,1.09978,3.47181,0.181917,0.0108442,0.610874,0.0267536,0.000123119,39.0664
193,964.291,1.0996,3.49889,0.246121,0.0108442,0.834706,0.0267536,6.15597e-05,39.5469
235,1174.52,1.09978,3.51797,0.310335,0.0108442,1.06004,0.0267536,6.15597e-05,39.9367
277,1384.73,1.09978,3.52844,0.374543,0.0108442,1.28631,0.0267536,0.000123119,40.2456
319,1594.98,1.0996,3.53244,0.438765,0.0108442,1.51303,0.0267536,0.0,40.645
361,1805.22,1.0996,3.53798,0.502982,0.0108442,1.74008,0.0267536,0.0,41.3458
403,2015.45,1.0996,3.5429,0.567196,0.0108442,1.96742,0.0267536,0.0,41.4432
445,2225.67,1.0996,3.54906,0.631406,0.0108442,2.1951,0.0267536,0.0,41.7346
487,2435.89,1.0996,3.55767,0.695615,0.0108442,2.42324,0.0267536,0.0,41.7648
529,2646.11,1.0996,3.56722,0.759822,0.0108442,2.65199,0.0267536,6.15597e-05,42.0631
571,2856.35,1.0996,3.57399,0.824006,0.0108442,2.88116,0.0267536,6.15597e-05,41.9391
613,3066.57,1.0996,3.58199,0.888249,0.0108442,3.11099,0.0267536,6.15597e-05,41.9391
655,3276.74,1.09942,3.59861,0.952443,0.0108442,3.34138,0.0267536,0.0,41.9457
697,3484.86,0.843351,3.60107,1.01038,0.0108442,3.55002,0.0267536,-6.15597e-05,41.986
739,3695.02,0.390773,3.60107,1.04582,0.0108442,3.67765,0.0267536,6.1512e-05,41.7884
781,3905.21,0.183792,3.60107,1.0615,0.0108442,3.73409,0.0267536,0.0,41.7916
823,4115.44,0.108723,3.60076,1.06973,0.0108442,3.76373,0.0267536,0.0,41.7179
865,4325.65,0.073174,3.60107,1.07492,0.0108442,3.78245,0.0267536,0.0,41.4094
931,4629.97,-0.000451223,3.55983,1.07809,0.0108447,3.79384,0.0267555,-6.15597e-05,41.4094
973,4672.21,-0.962451,3.31084,1.07809,0.015189,3.79384,0.0416012,-0.0190818,41.2786
1015,4714.46,-0.481361,3.37609,1.07915,0.01893412,3.79763,0.0540438,-0.000800228,41.4731
1057,4756.67,-0.481541,3.33916,1.08022,0.025109,3.80138,0.0744619,-0.000553989,41.5032
1099,4798.88,-0.96227,3.22036,1.08022,0.03141034,3.80138,0.0952803,-0.000738668,41.7681
1141,4841.1,-0.481361,3.30284,1.08129,0.0347948,3.80508,0.1063,-0.00036931,41.3825
1183,4883.34,-2.40572,2.90582,1.08129,0.0529412,3.80508,0.158371,-0.00043087,41.4262
1225,4925.58,-0.962451,3.16773,1.08342,0.0679578,3.81257,0.203338,0.0,41.4665
1267,4967.8,-0.000270769,3.35332,1.0877,0.0712725,3.82831,0.213835,6.15597e-05,41.5537
1310,5009.08,-0.481361,3.26652,1.0877,0.07209173,3.82831,0.216513,-0.000246191,41.4029
1352,5051.31,-0.000451223,3.3487,1.08877,0.078226,3.83198,0.236243,-0.0166196,41.5202
1394,5093.53,-0.96227,3.17265,1.08877,0.0821189,3.83198,0.248882,-0.0173583,41.3894
1436,5135.77,-0.481541,3.25698,1.08983,0.0879584,3.83564,0.267688,-6.15597e-05,41.5101
1478,5177.98,-0.000451223,3.34408,1.0909,0.093731,3.8393,0.286201,6.15597e-05,41.396
1520,5220.17,-0.481361,3.25483,1.0909,0.0976356,3.8393,0.298919,-0.000123119,41.4295
1562,5262.38,0.962631,3.48873,1.09181,0.123134,3.84246,0.370807,0.00166197,41.4328
1604,5304.57,1.92499,3.67924,1.09604,0.131677,3.85778,0.397764,0.00116954,41.406
1646,5346.79,-0.000451223,3.34162,1.09732,0.131681,3.86249,0.397778,-6.15597e-05,41.5435
1689,5388.19,-0.481541,3.25144,1.09732,0.134919,3.86249,0.408314,-6.15597e-05,41.4731
1731,5430.4,-0.481361,3.25421,1.09839,0.138959,3.86614,0.42117,-0.0172352,41.5637
1773,5472.61,-0.481361,3.25298,1.09946,0.145133,3.8698,0.440959,-0.03367009,41.681
1815,5514.85,-0.481361,3.24775,1.09946,0.150782,3.8698,0.459314,-6.15597e-05,41.5067
1857,5557.07,-0.4811804,3.25175,1.10053,0.154827,3.87345,0.472172,-0.000123119,41.6711
1899,5599.28,-2.40572,2.88366,1.10053,0.169712,3.87345,0.514516,-0.000123119,41.6409
1941,5641.48,-0.96227,3.14957,1.10266,0.1871514,3.88089,0.565712,-6.15597e-05,41.5805
1983,5683.73,-0.000451223,3.33639,1.10693,0.192104,3.89655,0.581309,-6.15597e-05,41.5805
2026,5725.04,-0.481541,3.2536,1.10693,0.192115,3.89655,0.581348,-0.0168659,41.4899
2068,5767.27,0.48118,3.41425,1.10723,0.199062,3.89758,0.603631,0.0515208,41.5033
2110,5809.49,-0.481361,3.24683,1.108,0.201807,3.9002,0.612545,0.0,41.6508
2152,5851.69,-0.481541,3.24529,1.10907,0.207982,3.90385,0.632311,-6.15597e-05,41.6944
2194,5893.92,0.48118,3.41487,1.10972,0.21457,3.90609,0.653404,0.000553989,41.5737
2236,5936.15,-0.481361,3.24498,1.11013,0.217669,3.90748,0.663465,-6.15597e-05,41.5703
2278,5978.37,-2.40572,2.87165,1.11013,0.242238,3.90748,0.732696,-0.000184631,41.5233
2320,6020.59,-0.96209,3.14495,1.11227,0.252432,3.91491,0.764274,6.1512e-05,41.5368
2362,6062.82,-0.000631677,3.33423,1.11653,0.252546,3.93055,0.764635,0.0,41.52
2405,6104.15,-0.481361,3.2456,1.11653,0.254975,3.93055,0.772522,-6.1512e-05,41.7547
2447,6146.35,-0.000451223,3.333,1.1176,0.259497,3.93419,0.786913,6.15597e-05,41.5603
2489,6188.59,0.481,3.41118,1.11794,0.26592,3.93536,0.807467,0.0516439,41.6307
2531,6230.84,-0.481361,3.24129,1.11867,0.270845,3.93782,0.823439,0.0,41.6743
2573,6273.06,-0.000451223,3.33177,1.11973,0.275014,3.94146,0.836669,6.15597e-05,41.6877
2615,6315.31,-3.84953,2.62759,1.11973,0.285488,3.94146,0.867207,-0.001600409,41.6274
2657,6357.51,-0.96227,3.13911,1.12187,0.306422,3.94886,0.927126,0.0,41.671
2699,6399.75,-0.000451223,3.32777,1.12614,0.312961,3.96451,0.947651,0.0,41.7582
2742,6441.04,-0.000451223,3.33177,1.12614,0.312965,3.96451,0.947665,6.15597e-05,41.6376
2784,6483.26,-0.962451,3.1508,1.12614,0.318914,3.96451,0.966762,-0.000307798,41.4734
2826,6525.48,-0.481361,3.24159,1.12721,0.321852,3.96815,0.9761974,-6.15597e-05,41.5305
2868,6567.72,-0.481361,3.23944,1.12828,0.328031,3.97179,0.995936,0.0,41.4266
2910,6609.97,-0.96227,3.14649,1.12828,0.335144,3.97179,1.01871,-0.000184679,41.44
2952,6652.214,-0.4811804,3.23913,1.12935,0.337723,3.97543,1.02704,6.15597e-05,41.5876
2994,6694.43,-2.40572,2.86273,1.12935,0.35908,3.97543,1.08716,-0.000246191,41.4535
3036,6736.64,-0.96227,3.13049,1.13148,0.371666,3.98283,1.12502,0.0,41.4535
3078,6778.85,-0.000270769,3.321,1.13575,0.373373,3.9984,1.13036,0.000123119,41.467
3121,6820.14,-0.481361,3.23482,1.13575,0.374997,3.9984,1.13562,-0.000123072,41.4099
3163,6862.35,-0.000451223,3.31977,1.13682,0.380331,4.00203,1.15258,0.000123119,41.3092
3205,6904.56,-0.96209,3.14065,1.13682,0.385827,4.00203,1.17014,-0.000246239,41.4933
3247,6946.81,-0.481361,3.22682,1.13789,0.390864,4.00566,1.18632,0.0,41.4966
3289,6989.04,-0.000451223,3.31484,1.13896,0.395837,4.0093,1.20208,0.000123072,41.1746
3331,7031.24,-0.481361,3.22405,1.13896,0.400546,4.0093,1.21728,-0.000123072,41.416
3373,7073.45,-0.96227,3.12403,1.1411,0.425622,4.01669,1.28697,-0.0678327,41.359
3415,7115.69,-0.000270769,3.30715,1.14537,0.433788,4.03226,1.31246,-0.000184679,41.4228
3458,7157.01,-0.000270769,3.30807,1.14537,0.433792,4.03226,1.31247,0.0,41.4697
3500,7199.23,-0.96227,3.13018,1.14537,0.438129,4.03226,1.32638,-0.0172967,41.3692
3542,7241.46,-0.481541,3.21728,1.14644,0.441881,4.03586,1.33822,-0.000184679,41.4296
3584,7283.68,-0.4811804,3.21482,1.1475,0.448059,4.03947,1.3578,-0.000123119,41.5033
3626,7325.92,-0.96227,3.12433,1.1475,0.454359,4.03947,1.37793,-0.000123119,41.4296
3668,7368.1,-0.481361,3.21359,1.14857,0.457737,4.04308,1.38862,-0.000123072,41.4899
3710,7410.39,-2.40572,2.84919,1.14857,0.475878,4.04308,1.43943,-6.15597e-05,41.5369
3752,7452.6,-0.96227,3.11541,1.15071,0.490888,4.05045,1.48357,0.0,41.5805
3794,7494.85,-0.000270769,3.30038,1.15497,0.494209,4.06595,1.49392,0.0,41.4162
3837,7536.11,-0.481361,3.21359,1.15497,0.495029,4.06595,1.49655,-0.000246191,41.4162
3879,7578.38,-0.000451223,3.29761,1.15605,0.501162,4.06958,1.51596,-0.0165581,41.386
3921,7620.6,-0.962451,3.12249,1.15605,0.505058,4.06958,1.52841,-0.0172967,41.4296
3963,7662.79,-0.481361,3.20774,1.15712,0.510884,4.07319,1.54689,-0.000123119,41.5469
4005,7705.02,-0.000451223,3.29576,1.15819,0.516659,4.07681,1.56513,0.0,41.5737
4047,7747.23,-0.481361,3.20743,1.15819,0.520564,4.07681,1.57766,0.0,41.5435
4089,7789.48,0.962631,3.44626,1.15911,0.546054,4.07999,1.6484,0.001600409,41.3624
4131,7831.74,1.92481,3.63523,1.16336,0.554615,4.09517,1.67505,0.001046419,41.2718
4173,7873.96,-0.000451223,3.29822,1.16458,0.554619,4.09964,1.67506,0.0,41.3289
4216,7915.25,-0.481361,3.20774,1.16458,0.557859,4.09964,1.68546,-0.000123119,41.3121
4258,7957.49,-0.481541,3.21051,1.16565,0.561907,4.10323,1.69817,-0.0172351,41.3557
4300,7999.7,-0.481541,3.20928,1.16671,0.568084,4.10684,1.71769,-0.0336086,41.4396
4342,8041.93,-0.481361,3.20466,1.16671,0.57373,4.10684,1.7358,-6.15597e-05,41.2484
4384,8084.15,-0.481361,3.20897,1.16778,0.577772,4.11043,1.74847,-0.000123119,41.396
4426,8126.36,-2.40572,2.84272,1.16778,0.592663,4.11043,1.79022,-6.15597e-05,41.2484
4468,8168.58,-0.96209,3.10895,1.16992,0.610102,4.11779,1.8407,6.15597e-05,41.3389
4510,8210.82,-0.000270769,3.29576,1.17418,0.615036,4.13326,1.85604,0.0,41.2953
4553,8252.1,-0.481541,3.21236,1.17418,0.615047,4.13326,1.85608,-0.0169274,41.3121
4595,8294.32,0.481,3.3724,1.17449,0.621991,4.13428,1.87806,0.0513977,41.3423
4637,8336.54,-0.481361,3.20528,1.17525,0.624732,4.13686,1.88685,-6.15597e-05,41.2987
4679,8378.75,-0.4811804,3.20405,1.17632,0.630904,4.14047,1.90635,-6.15597e-05,41.3724
4721,8420.99,0.481,3.37332,1.17698,0.63749,4.1427,1.92716,0.00049243,41.416
4763,8463.23,-0.481361,3.20374,1.17739,0.640593,4.14408,1.93711,-6.15597e-05,41.3859
4805,8505.46,-2.40554,2.83164,1.17739,0.665172,4.14408,2.00539,-0.000123072,41.3993
4847,8547.71,-0.96227,3.10464,1.17953,0.675351,4.15142,2.03652,0.000123119,41.4127
4889,8589.93,-0.000270769,3.29361,1.1838,0.675441,4.16691,2.0368,0.0,41.2183
4932,8631.2,-0.481361,3.20497,1.1838,0.677871,4.16691,2.04459,-6.15597e-05,41.4665
4974,8673.41,-0.000451223,3.29207,1.18487,0.682392,4.17052,2.05879,6.15597e-05,41.5402
5016,8715.66,0.481,3.36993,1.18522,0.68881,4.17169,2.07907,0.0515208,41.4933
5058,8757.86,-0.481361,3.20035,1.18594,0.693733,4.17411,2.09484,-0.000123072,41.5068
5100,8800.05,-0.000451223,3.29084,1.187,0.697903,4.1777,2.1079,6.1512e-05,41.4599
5142,8842.27,-3.84953,2.5882,1.187,0.708301,4.1777,2.13781,-0.001600409,41.517
5184,8884.54,-0.96209,3.0994,1.18914,0.729302,4.18503,2.19707,6.15597e-05,41.4567
5226,8926.76,-0.000451223,3.28807,1.19341,0.735857,4.2005,2.21739,0.0,41.4266
5269,8968.1,-0.000451223,3.29176,1.19341,0.735861,4.2005,2.2174,6.15597e-05,41.3528
5311,9010.32,-0.96227,3.11141,1.19341,0.741817,4.2005,2.23628,-0.000307798,41.4266
5353,9052.54,-0.481361,3.20158,1.19448,0.74476,4.2041,2.24561,-0.000123119,41.3092
5395,9094.76,-0.481361,3.19974,1.19555,0.750936,4.20769,2.2651,-6.15597e-05,41.4632
5437,9136.98,-0.96227,3.10741,1.19555,0.758038,4.20769,2.28756,-0.000246191,41.4966
5479,9179.21,-0.481361,3.19974,1.19662,0.760618,4.2113,2.29579,0.0,41.292
5521,9221.44,-2.40572,2.82303,1.19662,0.781959,4.2113,2.35503,-0.000307751,41.3859
5563,9263.65,-0.96227,3.09294,1.19875,0.794553,4.21862,2.39242,0.0,41.2853
5605,9305.86,-0.000451223,3.28468,1.20304,0.796261,4.2341,2.3977,0.0,41.4362
5648,9347.17,-0.481541,3.19881,1.20304,0.797883,4.2341,2.40289,-0.000184679,41.6039
5690,9389.37,-0.000270769,3.28468,1.20411,0.803214,4.2377,2.41965,0.000123119,41.4429
5732,9431.6,-0.96227,3.10587,1.20411,0.808709,4.2377,2.43702,-0.000246239,41.6944
5774,9473.84,-0.481361,3.19297,1.20517,0.813755,4.24127,2.45306,0.0,41.7246
5816,9516.08,-0.000270769,3.28222,1.20624,0.81873,4.24486,2.46866,0.000184679,41.6375
5858,9558.29,-0.481361,3.19174,1.20624,0.823442,4.24486,2.48371,0.0,41.7146
5900,9600.53,-0.962451,3.08648,1.20838,0.848512,4.25217,2.55246,-0.0677095,41.6711
5942,9642.74,-0.000270769,3.27329,1.21266,0.856672,4.26761,2.57763,-0.000123119,41.6845
5985,9684.06,-0.000451223,3.27576,1.21266,0.856677,4.26761,2.57765,6.15597e-05,41.5805
6027,9726.26,-0.96227,3.09787,1.21266,0.861007,4.26761,2.5914,-0.0172967,41.5939
6069,9768.46,-0.481541,3.18527,1.21373,0.864757,4.27119,2.6031,-0.000123119,41.6978
6111,9810.7,-0.481361,3.18127,1.21479,0.870941,4.27474,2.6225,-0.000123119,41.7983
6153,9852.94,-0.96227,3.08863,1.21479,0.877242,4.27474,2.64241,-0.000246191,41.7682
6195,9895.12,-0.481361,3.1785,1.21586,0.880629,4.27831,2.65301,-6.15597e-05,41.7212
6237,9937.33,-2.40554,2.80364,1.21586,0.898698,4.27831,2.70288,-0.000307798,41.7178
6279,9979.56,-0.96227,3.06955,1.21799,0.913756,4.28558,2.74646,0.0,41.5233
6321,10021.8,-0.000451223,3.25883,1.22229,0.917099,4.301,2.75672,0.0,41.7278
6364,10063.2,-0.481361,3.17296,1.22229,0.917915,4.301,2.75931,-0.000246191,41.5066
6406,10105.4,-0.000451223,3.25483,1.22336,0.92405,4.30457,2.77847,-0.0164965,41.5803
6448,10147.7,-0.962451,3.07817,1.22336,0.927949,4.30457,2.79076,-0.0173583,41.8016
6490,10189.9,-0.481361,3.16219,1.22442,0.933784,4.30812,2.809,-6.15597e-05,41.9927
6532,10232.1,-0.000270769,3.2496,1.22549,0.939563,4.31167,2.82698,6.15597e-05,41.9759
6574,10274.3,-0.481361,3.16004,1.22549,0.943473,4.31167,2.83935,0.0,41.7983
6616,10316.5,0.962631,3.39056,1.22641,0.968975,4.31478,2.90876,0.001908207,41.7648
6658,10358.8,1.92481,3.58168,1.23067,0.977521,4.3298,2.93488,0.00141578,41.6743
6700,10401,-0.000451223,3.24806,1.23191,0.977526,4.33424,2.93489,6.15597e-05,41.8352
6743,10442.3,-0.481541,3.15573,1.23191,0.980762,4.33424,2.94512,-6.15597e-05,41.8352
6785,10484.5,-0.481361,3.15788,1.23298,0.984807,4.3378,2.9576,-0.0171736,41.6409
6827,10526.7,-0.481361,3.1548,1.23405,0.990982,4.34134,2.97679,-0.033547,41.7582
6869,10569,-0.481541,3.14742,1.23405,0.996628,4.34134,2.99457,-0.000123072,41.7717
6911,10611.2,-0.481361,3.15111,1.23511,1.00067,4.34487,3.00701,-0.000307798,41.517
6953,10653.4,-2.40572,2.77748,1.23511,1.01557,4.34487,3.04786,-0.000307798,41.6645
6995,10695.6,-0.962451,3.0397,1.23725,1.03299,4.3521,3.09712,-0.000123119,41.678
7037,10737.9,-0.000451223,3.23051,1.24153,1.03793,4.36733,3.11212,0.0,41.5741
7080,10779.1,-0.481541,3.14834,1.24153,1.03794,4.36733,3.11215,-0.0168658,41.6613
7122,10821.4,0.481,3.30407,1.24183,1.04488,4.36833,3.13368,0.051767,41.5439
7164,10863.6,-0.481361,3.13572,1.2426,1.04762,4.37086,3.14229,-6.15597e-05,41.7049
7206,10905.9,-0.481361,3.13203,1.24367,1.05381,4.37439,3.16138,-0.000123119,41.896
7248,10948.1,0.481,3.30099,1.24434,1.06038,4.37659,3.18168,0.000677109,41.6915
7290,10990.3,-0.481541,3.12895,1.24474,1.0635,4.37791,3.19143,-6.1512e-05,41.5773
7332,11032.6,-2.40572,2.74424,1.24474,1.08811,4.37791,3.25778,-0.000307751,41.7884
7374,11074.8,-0.96227,3.01477,1.24688,1.09825,4.38511,3.28791,-6.1512e-05,41.5704
7416,11117,-0.000451223,3.21174,1.25116,1.09833,4.40026,3.28815,0.0,41.5904
7459,11158.3,-0.481541,3.11941,1.25116,1.10076,4.40026,3.29575,-0.000123119,41.6239
7501,11200.5,-0.000270769,3.2062,1.25222,1.10529,4.40376,3.30957,0.000123072,41.5368
7543,11242.7,0.481,3.28068,1.25257,1.11171,4.40489,3.32926,0.0523826,41.7178
7585,11284.9,-0.481361,3.10648,1.25329,1.11663,4.40726,3.34457,0.0,41.8251
7627,11327.1,-0.000270769,3.19851,1.25436,1.12079,4.41077,3.35722,0.000123072,41.7682
7669,11369.4,-3.84917,2.48171,1.25436,1.13123,4.41077,3.38619,-0.0018466,41.9324
7711,11411.6,-0.96227,2.99907,1.2565,1.15217,4.41791,3.44309,-0.000246239,41.9963
7753,11453.8,-0.000451223,3.19512,1.26078,1.15873,4.433,3.46273,0.0,41.832
7796,11495.1,-0.000451223,3.19728,1.26078,1.15873,4.433,3.46275,6.15597e-05,42.0264
7838,11537.3,-0.96227,3.00646,1.26078,1.16468,4.433,3.48101,-0.00036931,41.9225
7880,11579.6,-0.481541,3.09848,1.26185,1.16762,4.4365,3.49003,-0.000123119,42.0868
7922,11621.8,-0.481361,3.09417,1.26292,1.1738,4.43999,3.50888,-0.000123072,42.2511
7964,11664.1,-0.96227,2.99569,1.26292,1.18091,4.43999,3.53059,-0.000307751,42.1907
8006,11706.3,-0.481361,3.08925,1.26398,1.18349,4.44346,3.53854,-0.000184679,42.1036
8048,11748.5,-2.40572,2.65991,1.26398,1.20484,4.44346,3.59486,-0.001354218,42.117
8090,11790.7,-0.962451,2.90582,1.26611,1.21745,4.45042,3.63011,-0.000553989,42.0868
8132,11832.9,-0.000451223,3.11202,1.27041,1.21916,4.46516,3.63507,6.15597e-05,42.0834
8175,11874.3,-0.481361,3.01815,1.27041,1.22078,4.46516,3.63999,-0.000369358,42.1067
8217,11916.5,-0.000451223,3.08986,1.27147,1.22612,4.46855,3.65573,0.000123119,42.1435
8259,11958.7,-0.962451,2.88643,1.27147,1.23162,4.46855,3.67197,-0.0009233,42.1703
8301,12000.9,-0.481361,2.95875,1.27254,1.23665,4.4719,3.68683,-0.000307751,41.9759
8343,12043,-0.000270769,3.03231,1.27361,1.24162,4.47523,3.7012,0.000246239,41.929
8385,12085.2,-0.481361,2.91659,1.27361,1.24631,4.47523,3.71494,-0.00036931,41.7648
8427,12127.4,-0.962451,2.61928,1.27574,1.27138,4.48151,3.77409,-0.0691868,41.9257
8469,12169.6,-9.03152e-05,2.76978,1.28002,1.27959,4.49461,3.79502,-0.00036931,41.7916
8512,12211.1,-0.000451223,2.78086,1.28002,1.27959,4.49461,3.79503,0.000123119,41.8352
8554,12253.3,-0.96227,2.51649,1.28002,1.28392,4.49461,3.80645,-0.0211746,41.5235
8596,12295.5,-0.481361,2.54603,1.28109,1.28767,4.49752,3.81584,-0.00258532,41.537
8639,12708.5,1.09942,3.21943,1.3086,1.29171,4.58237,3.8254,0.001107979,41.1445
8681,12918.7,1.0996,3.43334,1.3728,1.29171,4.79765,3.8254,6.15597e-05,41.5603
8723,13128.9,1.0996,3.45826,1.437,1.29171,5.01888,3.8254,6.15597e-05,41.5369
8765,13339.1,1.0996,3.48843,1.5012,1.29171,5.24189,3.8254,6.15597e-05,41.7315
8807,13549.389,1.09942,3.50997,1.56541,1.29171,5.46662,3.8254,0.0,41.7648
8849,13759.6,1.09942,3.52382,1.62961,1.29171,5.69245,3.8254,0.0,41.9792
8891,13969.8,1.09942,3.52813,1.6938,1.29171,5.91883,3.8254,0.0,42.043
8933,14180,1.0996,3.53213,1.75802,1.29171,6.14551,3.8254,0.0,42.1538
8975,14390.2,1.0996,3.53705,1.82222,1.29171,6.37242,3.8254,0.0,42.3717
9017,14600.4,1.0996,3.54259,1.88643,1.29171,6.5997,3.8254,6.1512e-05,42.4121
9059,14810.6,1.0996,3.54967,1.95063,1.29171,6.82735,3.8254,6.15597e-05,42.0565
9101,15020.8,1.0996,3.55983,2.01483,1.29171,7.05555,3.8254,6.15597e-05,41.986
9143,15231,1.0996,3.5666,2.07902,1.29171,7.28432,3.8254,0.0,41.8721
9185,15441.2,1.09942,3.57276,2.14323,1.29171,7.5135,3.8254,0.0,41.9894
9227,15651.4,1.0996,3.58322,2.20742,1.29171,7.74315,3.8254,0.0,42.0965
9269,15860.3,1.03211,3.60076,2.27072,1.29171,7.97063,3.8254,-0.000123072,41.909
9311,16070.6,0.5687,3.60107,2.31894,1.29171,8.14426,3.8254,0.0,41.6075
9353,16280.8,0.218259,3.60138,2.34005,1.29171,8.22029,3.8254,0.000123072,41.5305
9395,16491,0.11143,3.60107,2.34911,1.29171,8.25292,3.8254,0.0,41.6409
9437,16701.1,0.0695649,3.60107,2.35424,1.29171,8.27138,3.8254,0.0,41.5704
9503,16959.7,-1.96902,3.16219,2.35636,1.29392,8.279,3.83254,-6.15597e-05,41.5469
9545,17001.8,-2.33751,3.03262,2.35737,1.30052,8.2826,3.85373,-0.01292634,41.681
9587,17044,0.319313,3.44257,2.35774,1.31236,8.28388,3.89049,0.0195127,41.6241
9629,17086.1,-2.77926,2.89227,2.35985,1.31563,8.29119,3.90023,-0.0211746,41.6107
9671,17128.2,-0.670837,3.25083,2.36003,1.32383,8.29181,3.92601,-0.02462163,41.7919
9713,17170.4,-0.399435,3.28376,2.36033,1.33258,8.29283,3.95375,-0.0168043,41.8087
9755,17212.4,-0.0136244,3.34808,2.36047,1.33826,8.29331,3.97207,0.044873,41.7216
9797,17254.6,-0.314441,3.28653,2.36065,1.34765,8.29393,4.00114,-0.0139728,41.8255
9839,17296.8,-0.846419,3.1905,2.36159,1.35771,8.29713,4.03206,-0.00141578,41.8993
9881,17339,-0.606776,3.22959,2.36163,1.36547,8.29727,4.05673,-0.007817363,41.8087
9923,17381.1,-0.159251,3.3093,2.36176,1.37228,8.2977,4.07835,0.0206822,41.8824
9965,17423.3,0.178198,3.37486,2.3627,1.3761,8.30092,4.09066,-0.008740664,41.822
10007,17465.4,-0.695379,3.21605,2.36431,1.37991,8.30646,4.10255,0.0316389,41.775
10049,17507.6,-0.000270769,3.34193,2.36559,1.38412,8.31077,4.11564,0.000246191,41.8889
10092,17549.6,-0.000270769,3.34193,2.36695,1.39052,8.31544,4.13409,0.000184631,41.7815
10134,17591.7,-0.000631677,3.34131,2.36798,1.39576,8.31894,4.15019,6.1512e-05,41.7916
10176,17633.9,-2.00331,2.97383,2.36808,1.40729,8.31929,4.18529,-0.002708387,41.9189
10218,17676.1,-0.000270769,3.34131,2.37045,1.41115,8.32735,4.19678,0.000123072,41.8117
10260,17718.2,-0.0524219,3.32131,2.37058,1.42184,8.32777,4.22922,-0.005539894,41.7346
10302,17760.4,0.525752,3.42041,2.37088,1.42988,8.3288,4.25449,0.0373634,41.5704
10344,17802.5,-0.466022,3.24929,2.37108,1.43562,8.32946,4.27286,0.00640163,41.453
10386,17844.7,-3.74722,2.66545,2.37108,1.4442,8.32946,4.29974,-0.100641,41.5569
10428,17886.8,0.538023,3.41825,2.37157,1.45541,8.33113,4.33369,0.0311464,41.5569
10470,17928.9,-0.302531,3.27114,2.37223,1.46254,8.3334,4.35621,0.0220979,41.453
10512,17971,-0.709996,3.20128,2.37231,1.46999,8.33365,4.37974,-0.026099,41.5871
10554,18013.2,-0.107099,3.30869,2.37262,1.47491,8.33474,4.39558,0.0253603,41.6474
10596,18055.4,0.199853,3.36747,2.37462,1.47697,8.34155,4.40196,0.0185894,41.6943
10638,18097.5,-1.78045,3.01415,2.37574,1.48291,8.34533,4.42041,-0.0105258,41.6206
10680,18139.7,-0.000451223,3.33146,2.37756,1.48937,8.35155,4.43901,-0.006463194,41.4596
10723,18181.7,0.522504,3.42318,2.37822,1.4946,8.35378,4.45505,0.0071403,41.59375
10765,18224,-0.0946482,3.30838,2.37869,1.50298,8.35539,4.4805,0.003816366,41.5803
10807,18266.1,0.604791,3.43949,2.38066,1.50997,8.36206,4.50149,0.0169274,41.6105
10849,18308.2,-0.689424,3.19635,2.38106,1.51968,8.36343,4.53072,0.0253603,41.463
10891,18350.3,-0.66001,3.20559,2.38138,1.52632,8.36449,4.55157,-0.0190202,41.5401
10933,18392.4,-0.385901,3.25575,2.38166,1.53305,8.36545,4.57293,-0.0126801,41.5703
10975,18434.6,-1.29196,3.09386,2.38169,1.53943,8.36555,4.59325,-0.01120286,41.5267
11017,18476.7,-1.27067,3.08617,2.38207,1.55224,8.36683,4.63186,0.0289305,41.5535
11059,18518.8,-0.981579,3.14588,2.38285,1.5589,8.36949,4.65283,-0.001046419,41.463
11101,18561,-0.870059,3.16311,2.38285,1.56729,8.36949,4.67931,-0.0118799,41.5334
11143,18603.1,-0.458263,3.2419,2.38324,1.572,8.37082,4.69434,0.0124955,41.2484
11185,18645.3,-0.000270769,3.333,2.38516,1.57373,8.37735,4.69985,0.0,41.5871
11227,18687.5,0.370742,3.39117,2.38615,1.57953,8.3807,4.71789,0.0106489,41.5402
11269,18729.6,0.586204,3.41825,2.38695,1.58812,8.38342,4.74301,0.0198204,41.5101
11312,18771.7,0.0870689,3.33269,2.38822,1.59306,8.38774,4.75807,0.047212,41.4933
11354,18813.8,-1.03301,3.12803,2.3892,1.60104,8.39107,4.78222,0.0238214,41.537
11396,18856,0.280515,3.36747,2.39027,1.60872,8.39468,4.80534,-0.001046419,41.537
11438,18898.3,-0.634025,3.19851,2.39168,1.61565,8.39945,4.82583,0.0201898,41.6107
11480,18940.4,-1.41954,3.06124,2.39199,1.62309,8.4005,4.849,0.003877926,41.5806
11522,18982.6,-0.97779,3.1388,2.39217,1.63046,8.40111,4.87233,-0.0139112,41.6107
11564,19024.9,-0.829998,3.16711,2.3923,1.63574,8.40154,4.88916,-0.0128033,41.5806
11606,19067.1,-1.70989,2.99999,2.39248,1.64689,8.40215,4.92315,-0.0191433,41.5806
11648,19109.2,-0.24244,3.26283,2.39346,1.65538,8.40548,4.94899,0.008125162,41.537
11690,19151.3,-0.104393,3.2816,2.39346,1.66361,8.40548,4.97487,0.0291151,41.537
11732,19193.5,0.804734,3.44503,2.3938,1.66941,8.40661,4.99312,0.0537367,41.5235
11774,19235.7,0.199131,3.34716,2.39564,1.67243,8.41284,5.00273,-0.0169274,41.5402
11816,19277.8,-0.0258952,3.30376,2.39657,1.67629,8.41598,5.01464,-0.002154398,41.453
11858,19319.9,-1.91561,2.96552,2.39743,1.68211,8.41885,5.03246,-0.0257912,41.292
11901,19361.7,0.04971496,3.30684,2.39879,1.6886,8.42347,5.05088,0.0577993,41.3691
11943,19403.8,-1.32805,3.0634,2.39981,1.69465,8.42692,5.06932,0.000553989,41.5032
11985,19446.1,0.482985,3.37301,2.39998,1.70748,8.42747,5.10765,0.0461041,41.4295
12027,19488.4,-2.87544,2.79256,2.40229,1.7094,8.43525,5.11329,-0.0435803,41.4596
12069,19530.6,0.165566,3.32438,2.40246,1.71882,8.43581,5.14182,0.0161888,41.5134
12111,19572.8,-1.05105,3.10864,2.40277,1.72732,8.43686,5.16821,-0.0291151,41.5704
12153,19614.8,-0.473782,3.20928,2.40291,1.73325,8.43733,5.18695,0.002831459,41.5838
12195,19657,-0.215552,3.25083,2.4031,1.74262,8.43795,5.21546,0.0270838,41.4933
12237,19699.2,-0.434262,3.21543,2.40403,1.7523,8.44111,5.24473,-0.003693247,41.4029
12279,19741.5,-1.00648,3.11233,2.40408,1.76021,8.44125,5.26943,-0.0214824,41.4632
12321,19783.6,-0.655318,3.17542,2.4042,1.76722,8.44168,5.29136,-0.0174814,41.4933
12363,19825.7,-0.00117304,3.29607,2.40512,1.77124,8.44476,5.30414,-0.00978713,41.5235
12405,19867.8,-1.24901,3.07232,2.40677,1.77463,8.45034,5.31455,-0.009048462,41.5537
12447,19910,-0.000270769,3.29484,2.40804,1.77927,8.4546,5.32878,-0.001477289,41.614
12490,19951.6,-0.000451223,3.29607,2.40941,1.78566,8.45922,5.34693,6.1512e-05,41.5101
12532,19993.9,-0.000270769,3.29607,2.41043,1.79091,8.46265,5.36281,0.0,41.614
12574,20036,-2.1197,2.91351,2.41054,1.80131,8.463,5.39412,-0.038656,41.5402
12616,20078.1,-0.000270769,3.29761,2.41291,1.80628,8.47097,5.40872,-0.000307751,41.4497
12658,20120.2,0.114678,3.30715,2.41302,1.81674,8.47134,5.43996,0.00923309,41.5537
12700,20162.3,-0.528459,3.19174,2.41323,1.82468,8.47202,5.46457,0.0127417,41.5235
12742,20204.5,-0.648642,3.17481,2.41354,1.83047,8.47306,5.48285,-0.009171581,41.4497
12784,20246.6,-0.892796,3.12649,2.41354,1.83811,8.47306,5.50679,0.00646315,41.5838
12826,20288.8,0.151852,3.30684,2.41393,1.8505,8.47436,5.54363,0.0339779,41.5101
12868,20330.9,0.000992408,3.28253,2.41469,1.85737,8.47695,5.56503,0.0357014,41.5704
12910,20373.1,-1.44625,3.03077,2.41475,1.86479,8.47713,5.58821,-0.0257296,41.614
12952,20415.3,-0.470714,3.20405,2.41509,1.86974,8.47828,5.60388,-0.0128648,41.4933
12994,20457.4,-0.319133,3.2339,2.41701,1.87207,8.48474,5.61106,0.0468427,41.4766
13036,20499.5,-1.50111,3.02492,2.4182,1.87711,8.48874,5.62658,-0.0165581,41.5337
13078,20541.7,0.0383464,3.29699,2.42001,1.88451,8.49484,5.64772,-0.0126186,41.4734
13121,20583.8,0.585483,3.39025,2.42036,1.88974,8.496,5.66355,0.0203129,41.3393
13163,20625.9,0.065234,3.29361,2.42109,1.89812,8.49846,5.68864,0.009171533,41.3695
13205,20668.1,0.161596,3.31854,2.42283,1.90512,8.50428,5.70938,-0.006709385,41.5639
13247,20710.2,-0.660732,3.16157,2.42353,1.91426,8.50662,5.73648,0.007817363,41.5068
13289,20752.4,-0.108363,3.2616,2.42384,1.92117,8.50767,5.75783,0.0221595,41.4933
13331,20794.5,-0.02030115,3.27914,2.42412,1.92794,8.5086,5.77906,0.03594761,41.5537
13373,20836.7,-0.977609,3.10956,2.42415,1.934,8.5087,5.79819,0.0181585,41.614
13415,20878.9,-1.22609,3.05601,2.42453,1.94654,8.50996,5.83554,-0.0338548,41.5704
13457,20921,-0.763771,3.14434,2.42531,1.95361,8.51259,5.85736,0.0160041,41.6307
13499,20963.1,-0.535677,3.18281,2.42531,1.9619,8.5126,5.88323,0.004001,41.6642
13541,21005.2,-0.458082,3.20189,2.4257,1.96691,8.51391,5.89895,0.002769947,41.5468
13583,21047.3,-0.000451223,3.29238,2.42761,1.96889,8.52035,5.9052,-6.15597e-05,41.577
13625,21089.5,0.0785876,3.29822,2.42843,1.9747,8.52308,5.92303,0.032439,41.4865
13667,21131.7,0.067219,3.2853,2.42928,1.98331,8.52592,5.94786,0.0589073,41.4832
13710,21173.8,-0.492729,3.18927,2.43065,1.98813,8.53053,5.96233,0.0196973,41.6005
13752,21215.9,-1.45689,3.01477,2.43166,1.9955,8.53391,5.98432,0.00652475,41.614
13794,21258,0.266621,3.32469,2.43256,2.0039,8.53693,6.00937,-0.001969719,41.6576
13836,21300.1,-1.2122,3.05878,2.43414,2.01029,8.5422,6.0279,-0.003631687,41.671
13878,21342.2,-1.54207,3.00369,2.43445,2.01755,8.54324,6.05028,-0.002954578,41.7146
13920,21384.4,-0.586565,3.17142,2.43463,2.02513,8.54384,6.07392,-0.000615549,41.832
13962,21426.5,-0.462774,3.19512,2.43476,2.03064,8.54427,6.09126,-0.00344701,41.7582
14004,21468.7,-1.18134,3.06001,2.43494,2.04084,8.54488,6.12211,-0.0127417,41.7717
14046,21510.8,0.104753,3.28776,2.43588,2.05056,8.54803,6.15127,0.006463194,41.6979
14088,21552.9,-0.936285,3.10248,2.43592,2.05842,8.54816,6.17571,-0.00744805,41.7717
14130,21595.1,-0.721545,3.14342,2.43606,2.06451,8.54862,6.19469,-0.0201282,41.6678
14172,21637.2,0.687439,3.40102,2.4379,2.06767,8.55479,6.20463,0.0114491,41.7986
14214,21679.4,0.03979,3.28437,2.43902,2.07154,8.55853,6.21646,-0.008186674,41.7114
14256,21721.5,-1.20408,3.0637,2.43989,2.07615,8.56143,6.23051,-0.0425955,41.7114
14299,21762.7,-1.6415,2.98799,2.44125,2.08225,8.56601,6.24762,-0.0571838,41.7582
14341,21804.8,-1.37226,3.02985,2.44228,2.08831,8.56942,6.2659,-0.008371353,41.7884
14383,21846.9,-0.81899,3.10402,2.44238,2.10229,8.56977,6.30706,0.0458579,41.8352
14425,21889.1,-0.898029,3.11325,2.44476,2.10285,8.57767,6.30882,-0.0315773,41.7782
14467,21931.2,-0.129837,3.23452,2.44488,2.11389,8.57809,6.34161,0.0145268,41.929
14509,21973.4,-0.403946,3.18158,2.44522,2.12224,8.5792,6.36722,-0.009910202,41.8553
14551,22015.6,-0.466022,3.17173,2.44538,2.12795,8.57974,6.38507,0.0100333,41.9123
14593,22057.8,-0.975805,3.0717,2.44554,2.13747,8.58026,6.41361,-0.01169529,41.9391
14635,22099.8,0.014346,3.2496,2.4465,2.14718,8.58345,6.44253,-0.0284996,41.7615
14677,22142,-1.20877,3.03108,2.44654,2.15478,8.5836,6.46595,-0.0138497,41.852
14719,22184.1,-0.06794098,3.23082,2.44667,2.16205,8.58402,6.48832,-0.002769947,41.7983
14761,22226.1,0.166108,3.27576,2.44721,2.1665,8.58583,6.50224,-0.004616546,41.8753
14803,22268.4,-0.617062,3.14188,2.44923,2.16865,8.59254,6.50878,-0.0264683,41.805
14845,22310.5,0.139942,3.27145,2.45048,2.17452,8.59667,6.52647,-0.00744805,41.9123
14887,22352.7,-0.000270769,3.24713,2.45187,2.1809,8.60128,6.54426,6.15597e-05,41.691
14930,22394.8,-0.000270769,3.24683,2.45289,2.18613,8.60467,6.55984,-0.00510898,41.8687
14972,22436.9,-1.03644,3.05416,2.45299,2.19515,8.60501,6.58658,-0.0227135,41.8687
15014,22479.1,0.008391018,3.24775,2.45536,2.20149,8.61282,6.6049,-0.007571125,41.7949
15056,22521.4,-0.145717,3.20466,2.45545,2.21178,8.61313,6.63506,-0.0134188,41.8687
15098,22563.5,-0.885938,3.07109,2.45568,2.21917,8.61386,6.65755,-0.0071403,41.9123
15140,22605.7,-0.840464,3.08094,2.45598,2.22544,8.61486,6.67692,-0.0323775,41.8351
15182,22647.8,-1.0783,3.03323,2.45599,2.23259,8.61488,6.69892,-0.008186674,41.9792
15224,22689.9,-0.809065,3.0714,2.45637,2.24538,8.61615,6.73616,0.0174814,42.0061
15266,22732.1,-1.01929,3.03662,2.45714,2.25192,8.6187,6.75614,-0.0152039,41.9022
15308,22774.2,-0.714146,3.09048,2.45719,2.25944,8.61885,6.77913,-0.024437,41.9792
15350,22816.4,-0.834329,3.06986,2.45753,2.26451,8.61999,6.79479,-6.15597e-05,41.9223
15392,22858.5,-1.64619,2.93413,2.45945,2.26633,8.62633,6.80032,-0.0283764,41.8083
15434,22900.6,-0.758899,3.08771,2.46065,2.27129,8.63025,6.81523,-0.0276994,41.7815
15476,22942.8,0.406111,3.28838,2.46222,2.27969,8.63542,6.83882,-0.007386493,41.7682
15519,22984.9,0.0116392,3.21359,2.4627,2.28487,8.63699,6.85409,-0.002585268,41.8285
15561,23027,-0.191552,3.17019,2.46354,2.29306,8.63975,6.87798,-0.004554987,41.9057
15603,23069.2,0.35396,3.27483,2.46514,2.30029,8.64496,6.89886,0.002893019,41.9493
15645,23111.3,-1.76565,2.88489,2.46598,2.3085,8.64774,6.92243,-0.0502282,42.0096
15687,23153.5,-0.0129025,3.19266,2.46629,2.31583,8.64876,6.94445,0.0163734,42.0398
15729,23195.6,0.022286,3.19789,2.46657,2.32275,8.64966,6.96552,-0.005047417,42.0398
15771,23237.8,-1.50598,2.92767,2.4666,2.32825,8.64976,6.98243,-0.0301,42.0566
15813,23279.9,-0.279794,3.13018,2.46698,2.34056,8.65098,7.01804,0.0559527,42.1907
15855,23322.1,-1.22682,2.96768,2.46776,2.34795,8.65354,7.04002,-0.0108951,42.0096
15897,23364.3,-0.6481,3.06401,2.46776,2.35667,8.65354,7.06631,0.0260374,42.0933
15939,23406.4,-0.718838,3.05755,2.46815,2.36161,8.65482,7.08132,-0.000307798,42.3412
15981,23448.5,-0.000451223,3.19666,2.47007,2.36407,8.66108,7.08884,-0.0012311,42.3814
16023,23490.7,-0.835772,3.03446,2.47087,2.36959,8.66367,7.10522,0.0144037,42.244
16065,23532.9,-1.59025,2.88366,2.47172,2.37812,8.66644,7.12896,0.006770945,42.1971
16108,23574.7,-1.06657,2.98584,2.4731,2.38222,8.67094,7.14082,0.008186674,42.1804
16150,23616.9,-1.65684,2.8735,2.47411,2.3893,8.67424,7.16124,0.0214824,42.0765
16192,23659,0.33393,3.22344,2.47475,2.39908,8.6763,7.1893,0.005478335,42.0329
16234,23701.3,-1.11114,2.95875,2.47659,2.40457,8.68225,7.20447,0.060754,41.9726
16276,23743.4,-1.46231,2.88981,2.4769,2.41191,8.68325,7.22617,0.0290535,41.929
16318,23785.6,0.051339,3.13757,2.47708,2.41977,8.68382,7.24956,0.0126801,41.8385
16360,23827.8,-0.368758,3.04893,2.47721,2.42541,8.68423,7.26643,-0.009110021,41.8218
16402,23869.9,-0.832524,2.92644,2.47739,2.43509,8.6848,7.29397,-0.0150807,41.7916
16444,23912.1,-0.0731741,3.02092,2.47832,2.44548,8.68773,7.32286,0.048874,41.6441
16486,23954.1,-0.722808,2.86704,2.47837,2.45308,8.68786,7.34454,-0.00504746,41.6441
16528,23996.3,-0.147341,2.93906,2.47851,2.45941,8.68828,7.36241,0.007078743,41.5402
16570,24038.4,0.367494,3.03293,2.48002,2.46286,8.69288,7.37222,-0.0068325,41.4966
16612,24080.5,0.33411,3.00769,2.48131,2.46671,8.69681,7.38274,0.00313926,41.3189
16654,24122.7,-0.000451223,2.92828,2.48233,2.47089,8.69985,7.394,0.000184631,41.1277
16697,24164.7,-0.0101957,2.88581,2.4837,2.4773,8.70389,7.40955,-0.000123119,41.1143
16739,24206.9,-1.28366,2.60851,2.48472,2.48291,8.70686,7.42406,-0.047766,41.292
16781,24249,-2.20235,2.02713,2.48483,2.49649,8.70715,7.45645,-0.02425232,41.396
16824,24749.4,1.0996,3.3764,2.54593,2.49667,8.90376,7.4568,0.00043087,41.6678
16866,24959.4,1.0996,3.4478,2.61007,2.49667,9.12366,7.4568,6.15597e-05,41.5773
16908,25169.4,1.09942,3.47673,2.67422,2.49667,9.34567,7.4568,0.000123072,41.7884
16950,25379.5,1.0996,3.50197,2.73838,2.49667,9.56958,7.4568,6.15597e-05,42.0198
16992,25589.5,1.0996,3.51951,2.80253,2.49667,9.79482,7.4568,0.000123119,42.0499
17034,25799.5,1.0996,3.52751,2.86668,2.49667,10.0209,7.4568,6.15597e-05,42.3884
17076,26009.6,1.0996,3.5309,2.93083,2.49667,10.2473,7.4568,0.000123119,42.3045
17118,26219.6,1.09942,3.5349,2.99498,2.49667,10.474,7.4568,0.0,42.3852
17160,26429.7,1.09942,3.54013,3.05914,2.49667,10.7009,7.4568,0.0,42.3115
17202,26639.7,1.0996,3.54567,3.12329,2.49667,10.9282,7.4568,-6.15597e-05,42.2377
17244,26849.7,1.0996,3.55521,3.18744,2.49667,11.1559,7.4568,6.15597e-05,42.0166
17286,27059.7,1.0996,3.56352,3.25159,2.49667,11.3843,7.4568,-6.1512e-05,41.9159
17328,27269.8,1.0996,3.56937,3.31573,2.49667,11.6131,7.4568,6.1512e-05,41.9795
17370,27479.8,1.0996,3.57676,3.37989,2.49667,11.8423,7.4568,6.15597e-05,41.8858
17412,27689.9,1.0996,3.59399,3.44405,2.49667,12.0722,7.4568,0.0,41.8691
17454,27899.8,0.817366,3.60107,3.50255,2.49667,12.2828,7.4568,-6.15597e-05,41.7517
17496,28109.9,0.323824,3.60138,3.5347,2.49667,12.3986,7.4568,6.15597e-05,41.4266
17538,28320,0.142107,3.60107,3.5472,2.49667,12.4436,7.4568,0.0,41.678
17580,28530,0.0816553,3.60107,3.55347,2.49667,12.4662,7.4568,0.0,41.6478
17646,28846,-0.000270769,3.56137,3.55709,2.49667,12.4792,7.4568,-6.15597e-05,41.6005
17688,28888.1,-1.15933,3.28407,3.55779,2.5017,12.4818,7.47306,-0.0265298,41.691
17730,28930.3,-1.14543,3.21082,3.5586,2.51111,12.4847,7.50313,0.00615544,41.6776
17772,28972.5,-0.000270769,3.41672,3.5614,2.51625,12.495,7.51978,0.0,41.6944
17814,29014.6,-2.81625,2.88858,3.5614,2.52017,12.495,7.53145,-0.0052321,41.7682
17856,29056.8,-0.989158,3.16496,3.56279,2.53972,12.5,7.58731,0.000123119,41.6944
17898,29098.9,-0.940075,3.16496,3.56284,2.56052,12.5001,7.64865,-0.0253603,41.7246
17940,29141.1,-0.960105,3.16342,3.56364,2.57442,12.5028,7.68973,0.0148346,41.7548
17982,29183.3,-0.000270769,3.35055,3.56925,2.57544,12.5226,7.69295,-6.15597e-05,41.7246
18024,29225.4,-0.462594,3.24898,3.56925,2.58895,12.5226,7.73358,0.0100949,41.7949
18066,29267.5,1.47602,3.59799,3.57391,2.59672,12.5393,7.75604,-0.006216955,41.6541
18108,29309.7,-0.447977,3.24283,3.57467,2.60751,12.5419,7.78692,0.0337317,41.7848
18150,29351.9,-0.000270769,3.34347,3.57785,2.61114,12.5532,7.79858,0.0,41.7681
18192,29394.1,-0.000451223,3.34039,3.57918,2.61824,12.558,7.82095,-0.0446883,41.6307
18234,29436.2,-0.604611,3.23113,3.57924,2.62198,12.5582,7.83263,-0.0173583,41.7045
18276,29478.4,-9.03152e-05,3.34039,3.58086,2.62665,12.564,7.84731,6.15597e-05,41.7179
18318,29520.6,-0.000451223,3.33885,3.58245,2.63347,12.5695,7.86843,-0.0264068,41.6877
18360,29562.7,0.438413,3.41025,3.58276,2.63883,12.5706,7.88518,0.00227747,41.6441
18402,29604.8,-0.000451223,3.33762,3.58536,2.64621,12.5797,7.90775,-0.0176045,41.7615
18444,29647,-2.45589,2.89474,3.58542,2.65609,12.5798,7.93801,-0.0545985,41.7615
18486,29689.1,-0.867352,3.1825,3.58694,2.66123,12.5851,7.9541,0.007817363,41.909
18528,29731.3,0.0778658,3.34377,3.5875,2.66883,12.587,7.97811,0.000123072,41.909
18570,29773.4,-0.604611,3.22467,3.58809,2.67336,12.589,7.9926,-0.000553989,41.909
18612,29815.6,-2.032,2.96799,3.58969,2.68026,12.5946,8.01382,-0.0301615,41.909
18654,29857.8,0.07245215,3.34439,3.59059,2.68559,12.5977,8.03046,-0.001538849,41.9224
18696,29899.9,-1.54478,3.06401,3.59166,2.68634,12.6014,8.03279,-0.0413028,41.8487
18738,29942,-0.000451223,3.33577,3.59345,2.69301,12.6076,8.05306,0.0,41.8185
18780,29984.3,0.0726326,3.34008,3.59346,2.7012,12.6077,8.07872,0.0163734,41.8185
18822,30026.5,1.04726,3.51459,3.59588,2.70587,12.6161,8.09246,0.0336086,41.7582
18864,30068.6,-0.0390684,3.321,3.59626,2.71103,12.6174,8.10864,0.0163118,41.6511
18906,30110.7,-0.000270769,3.33269,3.59709,2.71293,12.6203,8.11478,0.0144037,41.5472
18948,30152.8,1.15427,3.5349,3.5992,2.72212,12.6278,8.14289,-0.0185278,41.5606
18990,30195,0.120994,3.34162,3.59948,2.72682,12.6288,8.15722,0.0410566,41.5606
19033,30237,-0.000270769,3.33577,3.60038,2.72682,12.6318,8.15723,0.0,41.6042
19075,30279.2,-0.71162,3.19758,3.60182,2.73695,12.6368,8.18798,0.0457963,41.5305
19117,30321.4,-0.331404,3.26437,3.60196,2.74431,12.6373,8.21121,0.0247447,41.5606
19159,30363.6,-0.000270769,3.33485,3.60468,2.7464,12.6471,8.21778,0.0,41.4869
19201,30405.8,-0.984466,3.15603,3.60609,2.75385,12.652,8.23976,-0.0580456,41.4567
19243,30448,-0.721545,3.16681,3.60609,2.78115,12.652,8.31644,0.0520748,41.5305
19285,30490.2,-3.84953,2.63067,3.60614,2.79596,12.6522,8.36101,-0.106119,41.5305
19327,30532.4,0.54073,3.42195,3.6101,2.80552,12.666,8.38857,-0.0284996,41.5606
19369,30574.6,-2.02208,2.95998,3.61255,2.81132,12.6745,8.4056,-0.0140959,41.4567
19411,30616.7,-0.000451223,3.32931,3.61585,2.81919,12.6863,8.4295,0.000123119,41.4869
19453,30658.9,-0.000451223,3.32715,3.61794,2.8269,12.6937,8.45161,6.15597e-05,41.5305
19495,30701.1,-1.06711,3.12341,3.61795,2.8404,12.6938,8.49099,-0.0290535,41.4869
19537,30743.2,-1.39356,3.07109,3.62112,2.84569,12.705,8.50753,-0.003570175,41.4869
19579,30785.4,-0.000451223,3.32685,3.62246,2.84843,12.7097,8.51619,0.000123119,41.4567
19621,30827.5,-1.04311,3.13018,3.62251,2.85642,12.7099,8.54112,0.0132957,41.4567
19663,30869.7,-1.12522,3.12156,3.62414,2.85904,12.7156,8.54926,0.0154501,41.5472
19705,30911.8,-0.443285,3.24713,3.62573,2.86377,12.7212,8.56381,-0.0155117,41.5036
19747,30953.9,-1.66171,3.02031,3.62688,2.87224,12.7252,8.58991,0.0,41.4734
19789,30996,-2.43658,2.87781,3.62863,2.8817,12.7312,8.6185,-0.0326237,41.5202
19831,31038.1,-0.34584,3.24683,3.6288,2.88972,12.7318,8.64319,-0.0165581,41.6376
19873,31080.2,0.428849,3.3804,3.63023,2.89581,12.7367,8.66234,0.0362554,41.6845
19915,31122.3,-0.0978963,3.29115,3.6309,2.90072,12.7389,8.67787,0.005416727,41.671
19957,31164.4,0.126588,3.32746,3.63144,2.90547,12.7407,8.69296,0.0328084,41.614
19999,31206.5,0.126769,3.329,3.6336,2.9129,12.7482,8.71527,0.000615549,41.6441
20041,31248.6,-0.000270769,3.31115,3.63492,2.91581,12.7528,8.72448,6.15597e-05,41.7045
20083,31290.7,0.136152,3.32254,3.63498,2.92297,12.753,8.74605,0.004862738,41.691
20125,31332.8,-0.385179,3.23113,3.63671,2.92741,12.7589,8.75965,0.0309618,41.5871
20167,31375,-0.000451223,3.30715,3.63824,2.93144,12.7642,8.7724,0.0,41.6743
20209,31417.1,-0.940255,3.13911,3.63948,2.93646,12.7685,8.78712,-0.0304077,41.614
20251,31459.3,-0.000270769,3.30346,3.64035,2.94185,12.7715,8.80388,6.15597e-05,41.6877
20293,31501.6,-0.336637,3.23636,3.64042,2.94803,12.7717,8.82275,-0.0160041,41.6576
20335,31543.7,-0.000451223,3.30315,3.64274,2.95237,12.7799,8.83597,6.15597e-05,41.6576
20377,31585.8,-0.000451223,3.30161,3.64364,2.95706,12.7829,8.85013,6.1512e-05,41.6274
20420,31627.1,0.160694,3.32377,3.64379,2.96159,12.7834,8.86374,6.15597e-05,41.6409
20462,31669.3,-0.394563,3.22374,3.64515,2.96949,12.7881,8.88785,0.003816366,41.6845
20504,31711.4,0.881788,3.45673,3.64781,2.97663,12.7976,8.91004,-0.0304693,41.6543
20546,31753.5,-0.000270769,3.30223,3.64795,2.97663,12.7981,8.91005,6.15597e-05,41.7281
20588,31795.6,-2.4945,2.8338,3.64936,2.99823,12.803,8.96998,0.01120286,41.6678
20630,31837.8,-1.55001,3.00184,3.64936,3.01957,12.803,9.03182,0.000184631,41.6376
20672,31879.9,-1.23764,3.06555,3.65002,3.03327,12.8052,9.07168,-0.0696793,41.5773
20714,31922,-0.000451223,3.30315,3.65582,3.03578,12.8253,9.07946,-0.0130495,41.517
20756,31964.1,-0.633664,3.1705,3.65582,3.04782,12.8253,9.11483,0.0415491,41.5639
20798,32006.2,-0.307403,3.22621,3.65913,3.05701,12.837,9.14139,0.0721415,41.5202
20840,32048.3,-3.84953,2.60297,3.66122,3.06416,12.8444,9.16135,-0.000307751,41.4933
20882,32090.4,1.03247,3.47981,3.66405,3.07151,12.8543,9.18355,-0.0171736,41.5235
20924,32132.6,-0.370743,3.22374,3.66444,3.07847,12.8556,9.20512,-0.0152654,41.4799
20966,32174.8,0.0289628,3.29638,3.66577,3.08186,12.8603,9.21551,-0.002400637,41.5101
21008,32216.9,-0.000451223,3.29484,3.66741,3.08701,12.8661,9.23156,6.15597e-05,41.4933
21050,32259.138,0.126588,3.30838,3.66745,3.09385,12.8662,9.2524,0.0241292,41.537
21092,32301.2,-0.3117342,3.23021,3.669,3.09844,12.8716,9.2665,0.02733,41.5504
21134,32343.4,0.652972,3.4004,3.67035,3.10659,12.8762,9.29119,0.02733,41.6242
21176,32385.6,-0.404668,3.21482,3.67197,3.11471,12.8818,9.31568,-0.02098999,41.7114
21218,32427.7,0.925819,3.45457,3.67286,3.12071,12.8848,9.33405,0.0239446,41.7415
21260,32469.9,-0.686898,3.16373,3.67399,3.12876,12.8886,9.35912,0.0161272,41.6511
21302,32512,-1.05232,3.10464,3.67464,3.13233,12.8908,9.37042,-0.02425232,41.517
21344,32554.1,-2.53402,2.84457,3.67623,3.1373,12.8963,9.38583,-0.05706067,41.5472
21386,32596.3,-0.531166,3.19204,3.67692,3.14581,12.8986,9.41167,0.001538849,41.5773
21428,32638.4,-0.000451223,3.29545,3.67819,3.14599,12.903,9.41224,6.15597e-05,41.6075
21470,32680.6,-0.21483,3.25544,3.67999,3.15331,12.9092,9.43422,-0.00757117,41.6511
21512,32722.8,-0.541091,3.18773,3.67999,3.16103,12.9092,9.45805,0.00227747,41.6511
21554,32765,-3.02143,2.75347,3.68153,3.16466,12.9144,9.46876,-0.0320082,41.5773
21596,32807.1,-0.268425,3.23575,3.68278,3.17087,12.9188,9.48756,0.0429648,41.5606
21638,32849.3,-0.34566,3.23205,3.68363,3.17241,12.9217,9.4925,-0.0104642,41.5773
21680,32891.4,-2.63111,2.81995,3.68394,3.18189,12.9227,9.52129,-0.0454269,41.6209
21722,32933.6,-1.44697,3.03262,3.68603,3.18462,12.9301,9.52952,0.0115106,41.6075
21765,32975,-0.000270769,3.2933,3.68692,3.18723,12.9331,9.53732,0.0,41.6979
21807,33017.1,0.399435,3.35762,3.68826,3.19443,12.9377,9.55894,-0.004739666,41.6075
21849,33059.2,0.07245215,3.29207,3.68844,3.20341,12.9383,9.5865,0.0134804,41.6075
21891,33101.4,-0.000270769,3.29268,3.69122,3.20678,12.9482,9.59698,6.15597e-05,41.6511
21933,33143.5,-0.877277,3.12618,3.69136,3.21334,12.9486,9.61598,-0.005786085,41.6376
21975,33185.7,-2.11014,2.88673,3.69262,3.23553,12.953,9.67768,0.004924345,41.6576
22017,33227.8,-0.379946,3.19635,3.69266,3.25392,12.95316,9.73088,0.00141573,41.5268
22059,33269.9,0.881607,3.42933,3.69425,3.26581,12.9585,9.76507,0.004616546,41.6072
22101,33312,-1.02326,3.11048,3.69908,3.26627,12.9752,9.76652,-0.0361938,41.6105
22143,33354.1,1.18369,3.49397,3.70163,3.27949,12.9843,9.80545,-0.025545,41.6139
22185,33396.3,-0.000451223,3.28437,3.70449,3.28719,12.9943,9.82722,6.15597e-05,41.6474
22227,33438.4,-0.243884,3.2259,3.70451,3.29927,12.9943,9.86158,-0.0100949,41.6944
22269,33480.6,-0.638717,3.17081,3.70767,3.30279,13.0054,9.87271,-0.0104642,41.7548
22311,33522.7,-0.000451223,3.28499,3.70902,3.30872,13.0101,9.89095,0.0,41.7548
22353,33564.9,-0.726237,3.15019,3.70907,3.31453,13.0102,9.90888,-0.0120031,41.8151
22395,33607,-0.000451223,3.28653,3.71069,3.31713,13.016,9.91684,0.0,41.7246
22437,33649.2,-0.000270769,3.28468,3.71229,3.32396,13.0215,9.93762,0.000184679,41.6944
22479,33691.4,-0.0437602,3.27514,3.71345,3.32933,13.0254,9.9541,-0.00147734,41.7983
22521,33733.5,-2.30954,2.87073,3.71519,3.33802,13.0314,9.98021,-0.0494895,41.8855
22563,33775.6,-0.570505,3.16342,3.71525,3.34962,13.0316,10.015,0.0159425,42.1201
22605,33817.7,-0.613994,3.16096,3.71678,3.35442,13.0367,10.03,-0.007817412,42.2775
22647,33859.8,-0.419646,3.19512,3.71741,3.36058,13.0389,10.0492,-0.0107104,42.244
22689,33902,-0.570505,3.17019,3.71793,3.36447,13.0406,10.0615,-0.0175429,42.3144
22731,33944.1,0.0190378,3.26498,3.7196,3.37321,13.0463,10.0875,0.016435,42.0732
22773,33986.2,-0.000451223,3.27299,3.72147,3.37612,13.0527,10.0966,-0.000246239,42.1603
22815,34028.3,-1.32065,3.02646,3.72147,3.38153,13.0527,10.1126,0.008740664,42.0565
22857,34070.5,-1.94899,2.92336,3.72326,3.385,13.0588,10.1232,-0.0469658,41.9224
22899,34112.6,0.735801,3.39763,3.72471,3.39173,13.0637,10.1439,0.009294653,41.966
22941,34154.8,-0.000270769,3.26529,3.72603,3.3964,13.0683,10.1573,6.15597e-05,41.966
22983,34196.9,-0.462774,3.17881,3.72626,3.40212,13.069,10.1749,0.00701718,41.8621
23025,34239.1,-1.16961,3.04739,3.72691,3.40698,13.0712,10.1894,0.0183431,41.832
23067,34281.3,-0.000451223,3.26191,3.72929,3.41264,13.0795,10.2066,0.0,41.8621
23109,34323.5,0.301809,3.31084,3.72975,3.41732,13.081,10.2205,0.008494472,41.8621
23152,34365.1,-2.67965,2.78302,3.73018,3.42044,13.0825,10.2298,-0.0150808,41.8621
23194,34407.2,-0.979594,3.07817,3.73165,3.42836,13.0875,10.2534,-0.0265298,41.9359
23236,34449.5,-0.803832,3.10248,3.73187,3.43669,13.0882,10.2789,0.0140959,41.9359
23278,34491.7,-0.000451223,3.25883,3.73451,3.43687,13.0975,10.2795,0.0,41.8018
23320,34533.8,-2.4364,2.80056,3.73591,3.45135,13.1023,10.3196,0.0486278,41.7582
23362,34576,-2.34365,2.80179,3.73591,3.47649,13.1023,10.3893,0.007078743,41.8018
23404,34618.1,-1.51518,2.94552,3.736,3.49256,13.1026,10.4352,0.0427186,41.832
23446,34660.3,0.365329,3.31515,3.74163,3.49604,13.1218,10.4457,-0.0398871,41.889
23488,34702.5,-0.765034,3.08648,3.74235,3.50621,13.1242,10.4748,0.0267145,41.5773
23530,34744.6,-3.10354,2.68668,3.74566,3.51246,13.1357,10.4934,-0.0321928,41.8018
23572,34786.8,-1.76836,2.92613,3.74777,3.51836,13.143,10.5097,-0.02733,41.832
23614,34828.9,0.579528,3.32531,3.74793,3.53176,13.1435,10.5477,0.0286227,41.7884
23656,34871.1,-0.370562,3.1585,3.75095,3.53787,13.154,10.5663,0.000123072,41.7884
23698,34913.2,-0.209597,3.18897,3.75229,3.5417,13.1586,10.5778,0.0367478,41.8051
23740,34955.4,-0.000270769,3.2299,3.75397,3.54729,13.1644,10.5948,-0.03305459,41.7448
23782,34997.5,-0.88666,3.06032,3.75397,3.55314,13.1644,10.6122,0.0280687,41.8621
23824,35039.7,-0.492188,3.1348,3.75555,3.55668,13.1697,10.623,0.0169274,41.832
23866,35081.9,-0.930871,3.04647,3.75671,3.56637,13.1736,10.6516,0.003816366,41.7415
23908,35124.1,-0.117024,3.18897,3.75847,3.57441,13.1796,10.6752,0.01200304,42.1102
23950,35166.2,-0.457902,3.13295,3.75882,3.58084,13.1807,10.6945,0.000553989,42.3884
23992,35208.3,-0.609303,3.10494,3.76055,3.58696,13.1864,10.7131,0.00301619,42.1673
24034,35250.5,0.370021,3.2776,3.7608,3.59174,13.1873,10.7278,0.0394562,42.4019
24076,35292.6,-0.000451223,3.21882,3.76279,3.59591,13.1939,10.7406,-0.000307751,42.3884
24118,35334.8,-0.317148,3.15142,3.76348,3.60441,13.1962,10.7655,0.007263375,42.2846
24160,35377,-0.000451223,3.21605,3.76476,3.60623,13.2005,10.7711,0.0,42.4019
24202,35419.1,0.23865,3.25421,3.76647,3.61348,13.2063,10.7923,-0.0299769,42.4454
24244,35461.2,-0.58458,3.09448,3.76655,3.61975,13.2065,10.811,0.0139728,42.2679
24286,35503.4,-0.000451223,3.20989,3.76809,3.62184,13.2116,10.8174,0.0,42.2679
24328,35545.6,-0.794448,3.0597,3.76935,3.62862,13.2159,10.8369,-0.0166811,42.1942
24370,35587.7,-0.000451223,3.20343,3.7702,3.63225,13.2187,10.8478,0.0,42.2243
24412,35629.8,-0.86266,3.03693,3.77027,3.63991,13.219,10.8706,-0.010218,42.3416
24454,35672,-0.000451223,3.20066,3.77259,3.64274,13.2269,10.8787,0.0,42.2377
24497,35714,-0.000270769,3.1982,3.77349,3.64745,13.2298,10.8925,6.1512e-05,42.1942
24539,35756.2,-1.97823,2.83718,3.77419,3.65399,13.2322,10.9114,-0.0299768,42.1506
24581,35798.3,-0.891893,3.02215,3.77501,3.66265,13.2349,10.937,0.008802271,41.8255
24623,35840.4,-0.000270769,3.19604,3.77779,3.66703,13.2445,10.9503,0.0,41.973
24665,35882.5,-1.1743,2.96737,3.77779,3.67277,13.2445,10.9661,0.0569376,41.9428
24707,35924.7,-1.43759,2.90274,3.77921,3.69151,13.2493,11.0161,-0.0158194,41.8691
24749,35966.8,-2.1197,2.76486,3.77925,3.71232,13.2494,11.0735,-0.0515208,41.7216
24791,36009,-1.12053,2.92182,3.78004,3.72604,13.252,11.1114,-0.006278515,41.7216
24833,36051.1,-0.000270769,3.16373,3.78566,3.7262,13.2706,11.1119,-6.15597e-05,41.678
24875,36093.3,0.584761,3.20651,3.78586,3.7398,13.2712,11.1499,0.0379789,41.678
24917,36135.5,-0.000270769,3.10771,3.79107,3.7475,13.2887,11.1703,-0.0511515,41.5305
24959,36177.6,-0.263012,2.99322,3.79107,3.75877,13.2887,11.1998,0.006647873,41.6209
25001,36219.8,-0.000270769,3.06863,3.79425,3.76192,13.2991,11.209,-6.15597e-05,41.5773
25043,36261.961,-0.000451223,3.04,3.79559,3.76901,13.3035,11.2293,-6.15597e-05,41.5504
25085,36304.1,-0.862479,2.85996,3.79564,3.77337,13.3036,11.2415,-0.010218,41.537
25127,36346.3,-0.000270769,3.00923,3.79726,3.77742,13.3089,11.2529,0.000123119,41.4632
25169,36388.4,-0.000270769,2.97753,3.79885,3.78425,13.3138,11.2716,6.15597e-05,41.5671
25211,36430.6,0.789576,3.08925,3.79991,3.78961,13.3171,11.2863,0.0147114,41.594
25253,36472.7,-0.000451223,2.90705,3.80176,3.79699,13.3227,11.3057,0.0,41.6376
25295,36514.9,-1.97841,2.3943,3.80181,3.80841,13.3229,11.3348,-0.009294653,41.5908
25337,36556.9,-1.00901,2.54511,3.80334,3.81275,13.3273,11.3461,-0.008371353,41.5908
25379,36599.1,-0.877096,2.39215,3.80398,3.81962,13.329,11.363,-0.0332393,41.5003
25412,36630.7,-0.000631677,2.22287,3.80449,3.82261,13.3303,11.3699,0.0,41.5003