File: Battery Data/RAW/A123_11.csv
,Test_Time(s),Current(A),Voltage(V),Charge_Capacity(Ah),Discharge_Capacity(Ah),Charge_Energy(Wh),Discharge_Energy(Wh),dV/dt(V/s),Temperature (C)_1
1,8.01135,-1.09937,2.88858,0.0,0.00152871,0.0,0.004426596,-0.00141578,31.2424
66,331.867,1.10013,3.1468,0.0214088,0.0423834,0.0644325,0.114123,0.001354218,31.7529
107,537.096,1.09994,3.40534,0.0841205,0.0423834,0.271637,0.114123,0.000307798,31.3708
148,742.275,1.09994,3.43765,0.146817,0.0423834,0.486397,0.114123,6.15597e-05,31.611
189,947.507,1.10013,3.46597,0.20953,0.0423834,0.702866,0.114123,0.0,31.7968
230,1152.72,1.10013,3.48874,0.272235,0.0423834,0.920967,0.114123,6.15597e-05,31.807
271,1357.91,1.09975,3.50382,0.334934,0.0423834,1.14023,0.114123,0.0,31.8239
312,1563.12,1.09994,3.50998,0.39764,0.0423834,1.36017,0.114123,6.1512e-05,32.0605
353,1768.29,1.10013,3.51367,0.46033,0.0423834,1.58032,0.114123,0.0,32.1653
394,1973.49,1.10013,3.5189,0.523035,0.0423834,1.80081,0.114123,-6.15597e-05,32.537
435,2178.68,1.10013,3.52506,0.585732,0.0423834,2.02162,0.114123,0.0,32.6248
476,2383.85,1.09994,3.53183,0.648429,0.0423834,2.24282,0.114123,0.0,32.7431
517,2589.04,1.10013,3.53953,0.711128,0.0423834,2.4645,0.114123,-6.15597e-05,32.8343
558,2794.22,1.10013,3.54814,0.773825,0.0423834,2.68669,0.114123,-6.15597e-05,32.7431
599,2999.42,1.09994,3.55676,0.836527,0.0423834,2.90945,0.114123,0.0,32.635
640,3204.62,1.09994,3.57061,0.89923,0.0423834,3.13286,0.114123,0.0,32.3174
681,3408.48,1.01767,3.60016,0.961087,0.0423834,3.35466,0.114123,0.0,32.3647
722,3613.69,0.491745,3.60016,1.0038,0.0423834,3.50845,0.114123,-6.1512e-05,32.6147
763,3818.91,0.234228,3.60016,1.02323,0.0423834,3.57839,0.114123,0.0,32.5505
804,4024.08,0.138434,3.60016,1.03347,0.0423834,3.61525,0.114123,0.0,32.2126
845,4229.31,0.0937305,3.60016,1.03995,0.0423834,3.63857,0.114123,6.15597e-05,32.0369
886,4434.52,0.0689368,3.59985,1.04453,0.0423834,3.65507,0.114123,-6.15597e-05,31.9659
951,4739.02,0.000190588,3.55584,1.04764,0.0423834,3.66626,0.114123,-0.000123119,31.9863
992,4780.19,-0.480657,3.40564,1.04764,0.0460099,3.66626,0.126583,-0.0009233,31.9119
1033,4821.36,-0.480657,3.38071,1.0487,0.0499087,3.67002,0.139535,-0.001046467,31.9863
1074,4862.53,-0.480845,3.34255,1.04977,0.055937,3.67375,0.1595,-0.02973113,31.9559
1115,4903.69,-0.480657,3.31023,1.04977,0.0614332,3.67375,0.17777,-0.000246239,31.9693
1156,4944.85,-0.480657,3.30592,1.05084,0.065327,3.67744,0.19039,-0.000492477,31.9051
1197,4986.01,-2.40555,2.95444,1.05084,0.0788375,3.67744,0.230027,0.0430886,31.9321
1238,5027.21,-0.96188,3.17697,1.05298,0.0969523,3.68483,0.284004,-6.15597e-05,31.8712
1279,5068.41,0.000190588,3.34286,1.05725,0.102782,3.70034,0.302517,-6.15597e-05,31.8104
1321,5109.07,0.000190588,3.34532,1.05725,0.102782,3.70035,0.302517,0.0,31.8104
1362,5150.26,-0.96188,3.18466,1.05725,0.108713,3.70035,0.321719,-0.000246239,31.8239
1403,5191.46,-0.481033,3.26314,1.05832,0.111516,3.704,0.330788,-0.000123072,31.8239
1444,5232.62,-0.480845,3.26068,1.05939,0.117548,3.70764,0.350215,0.0,31.8239
1485,5273.81,-0.96188,3.17974,1.05939,0.124085,3.70764,0.371356,-0.000123119,31.9726
1526,5315.01,-0.480657,3.25976,1.06046,0.126942,3.71128,0.38058,-0.000123119,31.9422
1567,5356.21,-2.40574,2.93105,1.06046,0.145355,3.71128,0.433819,-0.000246239,31.9726
1608,5397.41,-0.962068,3.16619,1.0626,0.159779,3.71866,0.477285,6.15597e-05,31.9726
1649,5438.62,0.000190588,3.33362,1.06687,0.163157,3.73413,0.487978,6.15597e-05,31.9726
1691,5479.12,-0.480657,3.26007,1.06687,0.1637,3.73413,0.489751,-0.000307751,31.9152
1732,5520.31,0.481226,3.40257,1.06757,0.170109,3.73651,0.51037,0.000554037,31.8273
1773,5561.49,-0.480657,3.25422,1.06794,0.173103,3.73777,0.520119,-6.15597e-05,31.9051
1814,5602.68,-0.480845,3.25268,1.06901,0.179139,3.74141,0.539512,-6.15597e-05,31.7732
1855,5643.86,0.481226,3.39949,1.06965,0.185599,3.74359,0.56027,0.000677109,32.0876
1896,5685.02,-0.480845,3.25237,1.07008,0.188532,3.74504,0.569815,-0.000123119,32.0133
1937,5726.21,-2.40574,2.91997,1.07008,0.211773,3.74504,0.636647,-0.000246191,32.0876
1978,5767.41,-0.962256,3.16004,1.07221,0.222592,3.752395,0.670052,0.0,32.0842
2019,5808.6,0.000190588,3.33055,1.07649,0.223569,3.76786,0.673139,6.15597e-05,31.9321
2061,5849.18,-0.480845,3.2536,1.07649,0.225318,3.76786,0.678835,-0.000123072,31.9321
2102,5890.37,0.000378419,3.32839,1.07756,0.230513,3.77149,0.69548,0.000123119,31.9016
2143,5931.57,-0.962068,3.17204,1.07756,0.235723,3.77149,0.712267,-0.000246191,31.9016
2184,5972.74,-0.480845,3.24806,1.07863,0.240754,3.77511,0.728522,0.0,31.9456
2225,6013.95,0.000190588,3.32562,1.0797,0.246009,3.77874,0.74534,6.15597e-05,31.9895
2266,6055.16,-0.480845,3.24806,1.0797,0.250162,3.77874,0.758841,-6.15597e-05,32.0774
2307,6096.36,0.962825,3.44165,1.08085,0.275384,3.7827,0.830918,0.0015389,32.0335
2348,6137.57,1.92527,3.61247,1.08479,0.283931,3.79674,0.857865,0.001354218,32.0943
2389,6178.76,0.000190588,3.326545,1.08612,0.283931,3.80156,0.857865,6.15597e-05,31.9456
2431,6219.23,-0.480657,3.24806,1.08612,0.28689,3.80156,0.867486,-6.15597e-05,31.8712
2472,6260.41,0.000190588,3.32562,1.08719,0.290876,3.80519,0.880179,6.15597e-05,31.9016
2513,6301.59,0.481226,3.39272,1.08779,0.29729,3.80723,0.900756,0.000677109,31.8442
2554,6342.78,-0.480657,3.24252,1.08826,0.302327,3.8088,0.917099,0.0,32.0268
2595,6383.97,0.000190588,3.32285,1.08933,0.306374,3.81242,0.929972,0.000123119,32.1316
2636,6425.16,-3.84922,2.7073,1.08933,0.315554,3.81242,0.95745,-0.002216005,32.162
2677,6466.34,-0.96188,3.14465,1.09146,0.337182,3.81976,1.01985,-0.000123119,32.0876
2718,6507.57,0.000190588,3.31177,1.09576,0.34432,3.8352,1.04229,-6.15597e-05,32.0234
2760,6548.09,0.000190588,3.31762,1.09576,0.34432,3.83521,1.04229,0.000123119,31.9321
2801,6589.29,-0.962068,3.16065,1.09576,0.348913,3.83521,1.0571,-0.000492477,31.9456
2842,6630.45,-0.480845,3.23852,1.09682,0.352382,3.83881,1.06815,-0.000184679,31.9456
2883,6671.63,-0.480845,3.23514,1.09789,0.358417,3.84243,1.08743,-0.000184679,31.7799
2924,6712.82,-0.96188,3.15419,1.09789,0.364283,3.84243,1.10633,-0.000430918,31.9726
2965,6754.02,-0.480845,3.23298,1.09896,0.367819,3.84603,1.11756,-0.000184679,32.0909
3006,6795.22,-2.40574,2.90428,1.09896,0.383539,3.84603,1.16268,-0.000246191,32.047
3047,6836.41,-0.962068,3.13357,1.10109,0.39998,3.85333,1.21124,-6.15597e-05,31.9118
3088,6877.55,0.000190588,3.301,1.10536,0.404705,3.86864,1.22605,0.000123119,32.0909
3130,6918.13,0.000190588,3.30346,1.10536,0.404705,3.86865,1.22605,0.0,32.0166
3171,6959.32,0.481226,3.36225,1.10539,0.411652,3.86874,1.2482,0.0440119,31.9726
3212,7000.49,-0.480657,3.22098,1.10643,0.413978,3.87225,1.25569,-0.000123119,32.0031
3253,7041.65,-0.480657,3.21852,1.1075,0.420005,3.87585,1.27485,-6.15597e-05,31.8712
3294,7082.87,-0.962068,3.13726,1.1075,0.427086,3.87585,1.29739,-0.000184631,32.02
3335,7124.05,-0.480657,3.21759,1.10857,0.429411,3.87946,1.30487,-0.000184631,32.0639
3376,7165.23,-2.40574,2.89135,1.10857,0.449958,3.87946,1.36337,-0.000184631,32.02
3417,7206.39,-0.962256,3.12741,1.11072,0.462755,3.88677,1.40184,0.0,32.0943
3458,7247.6,0.000190588,3.29484,1.11499,0.465087,3.90207,1.40913,6.15597e-05,31.9929
3500,7288.17,-0.480657,3.21882,1.11499,0.466164,3.90208,1.4126,-0.000184679,31.9085
3541,7329.36,0.000378419,3.29146,1.11606,0.472027,3.90568,1.43121,-0.014527,32.0437
3582,7370.53,-0.962068,3.13819,1.11606,0.475875,3.90568,1.44353,-0.0151426,31.9998
3623,7411.74,-0.480657,3.21236,1.11713,0.481583,3.90928,1.46168,0.0,31.9998
3664,7452.93,0.000190588,3.2893,1.1182,0.487502,3.91288,1.48044,-0.0144039,32.2533
3705,7494.11,-0.480845,3.21236,1.11821,0.490974,3.91288,1.4916,-0.000123119,32.1755
3746,7535.28,-2.40593,2.88304,1.11821,0.51636,3.91288,1.56357,-0.000246239,32.0977
3787,7576.45,1.92508,3.56692,1.12053,0.525454,3.92085,1.59185,0.0886394,31.976
3828,7617.62,0.000190588,3.29238,1.12463,0.525454,3.93551,1.59185,6.15597e-05,32.0504
3870,7658.23,-0.480845,3.21421,1.12463,0.52774,3.93552,1.5992,-0.000123119,31.8712
3911,7699.41,0.000190588,3.29023,1.1257,0.532401,3.9391,1.61393,6.15597e-05,31.9591
3952,7740.61,-0.962256,3.13142,1.1257,0.538679,3.9391,1.63386,-0.000246239,31.8847
3993,7781.81,-0.480845,3.20928,1.12676,0.543185,3.94268,1.64831,-6.15597e-05,31.9287
4034,7823,0.000378419,3.28869,1.12784,0.547901,3.94628,1.6632,0.000184679,32.0031
4075,7864.17,-0.480657,3.20928,1.12784,0.552583,3.94628,1.67823,-6.15597e-05,32.0774
4116,7905.36,-0.962068,3.12249,1.12997,0.577365,3.95355,1.74798,-0.0579234,31.9152
4157,7946.53,0.000378419,3.28869,1.13425,0.585848,3.96884,1.77444,-0.0587236,31.9152
4199,7987.1,0.000190588,3.29054,1.13425,0.585848,3.96884,1.77444,6.15597e-05,31.7225
4240,8028.3,-0.480845,3.21021,1.13425,0.589343,3.96885,1.78567,-6.15597e-05,31.8577
4281,8069.48,-0.480845,3.21328,1.13532,0.593246,3.97243,1.79796,-0.000307798,31.8442
4322,8110.7,-0.480845,3.21174,1.13639,0.599283,3.97602,1.81709,-0.0291771,31.922
4363,8151.87,-0.480657,3.20651,1.13639,0.604783,3.97602,1.83473,-6.15597e-05,31.9051
4404,8193.07,-0.480657,3.21174,1.13745,0.608678,3.9796,1.84698,-0.00036931,31.9625
4445,8234.25,-2.40593,2.88304,1.13745,0.621743,3.9796,1.88429,0.0428424,31.976
4486,8275.46,-0.96188,3.11449,1.1396,0.640174,3.98689,1.93793,6.15597e-05,31.9456
4527,8316.64,0.000190588,3.28407,1.14387,0.646232,4.00213,1.95679,0.0,31.9591
4569,8357.15,0.000190588,3.28838,1.14387,0.646232,4.00214,1.95679,0.0,31.8678
4610,8398.31,-0.962068,3.12895,1.14387,0.651897,4.00214,1.97483,-0.000307798,31.8712
4651,8439.54,-0.480845,3.20867,1.14494,0.654841,4.00572,1.98417,-0.000184631,31.621
4692,8480.7,-0.480657,3.20651,1.146,0.660873,4.0093,2.00327,-0.000123119,31.7902
4733,8521.85,-0.96188,3.12557,1.146,0.667266,4.0093,2.02362,-0.000307798,31.8376
4774,8563.05,-0.480845,3.20713,1.14707,0.670265,4.01288,2.03312,-0.000123119,31.7666
4815,8604.24,-2.40574,2.87411,1.14707,0.688129,4.01288,2.08381,-0.00036931,31.8615
4856,8645.43,-0.962068,3.10895,1.14921,0.702966,4.02013,2.12756,0.0,31.9528
4897,8686.59,0.000190588,3.2813,1.15348,0.706626,4.03538,2.13893,0.000123119,31.8955
4939,8727.21,-0.480657,3.2099,1.15348,0.707038,4.03538,2.14026,-0.000307798,32.0477
4980,8768.4,0.481226,3.35117,1.15405,0.713578,4.03728,2.16097,0.000677061,31.9465
5021,8809.57,-0.480657,3.20405,1.15455,0.716442,4.03896,2.17015,-6.15597e-05,31.8757
5062,8850.76,-0.480845,3.2022,1.15562,0.722473,4.04254,2.18923,-6.1512e-05,31.7574
5103,8891.92,0.481226,3.34778,1.15612,0.729072,4.04423,2.2101,0.000738668,32.089
5144,8933.12,-0.481033,3.2019,1.15669,0.731874,4.04612,2.21908,-0.000184631,32.2242
5185,8974.29,-2.40574,2.86273,1.15669,0.754567,4.04612,2.28311,-0.000307798,32.0854
5226,9015.49,-0.962068,3.10279,1.15883,0.765773,4.05338,2.31694,0.0,32.1427
5267,9056.69,0.000378419,3.27699,1.16311,0.767012,4.06861,2.32079,0.0,32.0916
5309,9097.24,-0.480657,3.20251,1.16311,0.768628,4.06862,2.32597,-6.15597e-05,31.8785
5350,9138.43,0.000190588,3.2773,1.16418,0.773958,4.07218,2.34277,0.000123119,31.9798
5391,9179.57,-0.962068,3.12095,1.16418,0.77888,4.07219,2.3584,-0.000246191,31.9289
5432,9220.76,-0.480845,3.19666,1.16524,0.784062,4.07575,2.37485,0.0,31.9254
5473,9261.98,0.000190588,3.27392,1.16631,0.789461,4.07931,2.39185,0.000123072,32.1316
5514,9303.17,-0.480845,3.19605,1.16631,0.793473,4.07932,2.40469,-6.15597e-05,32.0099
5555,9344.37,0.962825,3.38379,1.16717,0.818873,4.08222,2.47589,0.002031279,31.9828
5596,9385.58,1.9249,3.55491,1.17081,0.827421,4.09495,2.50235,0.001723576,31.9085
5637,9426.76,0.000190588,3.27053,1.17272,0.827421,4.10175,2.50235,6.15597e-05,31.9389
5679,9467.28,-0.480657,3.19205,1.17273,0.830245,4.10176,2.51137,-0.000123072,31.8645
5720,9508.48,0.000190588,3.26991,1.17379,0.834369,4.10532,2.52428,0.000123119,31.8206
5761,9549.7,0.481226,3.33547,1.17427,0.840784,4.10689,2.5445,0.00080018,31.8815
5802,9590.88,-0.480845,3.18528,1.17486,0.84569,4.10887,2.56014,0.0,31.9119
5843,9632.07,0.000190588,3.26468,1.17593,0.849866,4.11244,2.57319,0.000123119,31.9119
5884,9673.26,-3.84922,2.64913,1.17593,0.858014,4.11244,2.59738,-0.002769995,31.9424
5925,9714.42,-0.962068,3.08586,1.17807,0.880418,4.11966,2.66038,-0.000246239,31.8984
5966,9755.61,2.75712e-06,3.25514,1.18235,0.887827,4.13481,2.68324,-0.000123119,31.8275
6008,9796.15,0.000190588,3.25914,1.18235,0.887827,4.13482,2.68324,6.15597e-05,31.9763
6049,9837.31,-0.962256,3.10095,1.18235,0.892143,4.13482,2.69692,-0.0153272,31.875
6090,9878.52,-0.480845,3.17881,1.18342,0.895762,4.13837,2.70821,-0.000123119,32.0541
6131,9919.68,-0.480657,3.17512,1.18448,0.901795,4.14191,2.72712,-0.000184679,32.0506
6172,9960.87,-0.96188,3.09387,1.18448,0.907529,4.14191,2.74527,-0.0151426,32.2094
6213,10002.1,-0.480657,3.17358,1.18555,0.911203,4.14545,2.7567,-0.000184679,32.2059
6254,10043.3,-2.40593,2.84026,1.18555,0.926394,4.14545,2.79936,-0.000307798,32.2364
6295,10084.5,-0.962068,3.07171,1.18769,0.943243,4.15263,2.84796,-6.15597e-05,31.9389
6336,10125.7,0.000190588,3.24406,1.19196,0.948231,4.16772,2.86328,0.0,32.0302
6378,10166.2,2.75712e-06,3.24775,1.19196,0.948231,4.16773,2.86328,0.0,31.9424
6419,10207.4,-0.962068,3.08248,1.19196,0.954973,4.16773,2.88439,-0.000307798,31.9424
6460,10248.6,-0.481033,3.16342,1.19303,0.957373,4.17126,2.89197,-0.000184679,32.0167
6501,10289.7,-0.480845,3.16004,1.1941,0.963407,4.17479,2.9108,-0.000123072,31.9424
6542,10330.9,-0.962068,3.07632,1.1941,0.970346,4.17479,2.93249,-0.000184679,32.135
6583,10372.1,-0.480845,3.15881,1.19517,0.97281,4.17832,2.94025,-0.000184679,32.1654
6624,10413.4,-2.40593,2.81902,1.19517,0.992852,4.17832,2.99599,-0.00036931,32.152
6665,10454.5,-0.962068,3.05601,1.1973,1.00606,4.18546,3.03461,0.0,32.1215
6706,10495.7,0.000190588,3.23113,1.20157,1.00863,4.20047,3.04247,6.15597e-05,32.0506
6748,10536.2,-0.480845,3.15604,1.20157,1.00957,4.20048,3.04544,-0.000246191,32.1859
6789,10577.4,0.000190588,3.22652,1.20264,1.01557,4.204,3.06409,-0.0142192,32.1824
6830,10618.6,-0.962068,3.07078,1.20264,1.01915,4.20401,3.07535,-0.0152041,32.2094
6871,10659.8,-0.480845,3.1428,1.20372,1.02499,4.20753,3.0935,-6.15597e-05,32.2803
6912,10701,0.481226,3.293,1.20476,1.03106,4.21096,3.1123,0.000615549,32.3377
6953,10742.2,-0.480657,3.14034,1.20479,1.03439,4.21105,3.12278,-6.15597e-05,32.2364
6994,10783.4,-2.40593,2.79379,1.20479,1.05925,4.21105,3.19119,-0.000307751,32.3581
7035,10824.5,-0.962068,3.03539,1.20692,1.06883,4.21816,3.22002,-6.15597e-05,32.2094
7076,10865.7,2.75712e-06,3.21451,1.21122,1.069,4.23319,3.22052,0.0,32.0472
7118,10906.3,-0.480657,3.13449,1.21122,1.07115,4.2332,3.22728,-0.000184679,32.2433
7159,10947.5,0.000190588,3.20959,1.21229,1.07594,4.2367,3.24203,0.000123119,32.1654
7200,10988.7,-0.962068,3.04493,1.21229,1.08196,4.2367,3.26064,-0.000369358,32.1654
7241,11029.9,-0.480845,3.12157,1.21336,1.08659,4.24019,3.27508,0.0,32.3276
7282,11071.1,2.75712e-06,3.20036,1.21442,1.09144,4.24368,3.28996,0.000123119,32.3411
7323,11112.3,-0.480845,3.11757,1.21442,1.096,4.24368,3.30418,-6.15597e-05,32.3546
7364,11153.5,0.963013,3.31854,1.21637,1.12087,4.25011,3.37162,0.00147734,32.2668
7405,11194.7,2.75712e-06,3.19666,1.22082,1.12941,4.26556,3.39741,-0.0578619,32.2668
7447,11235.2,0.000190588,3.19636,1.22082,1.12941,4.26557,3.39741,0.0,32.2668
7488,11276.4,-0.480845,3.1111,1.22082,1.13277,4.26557,3.40788,-6.15597e-05,32.1924
7529,11317.6,-0.480657,3.1148,1.2219,1.13667,4.26906,3.41974,-0.0152041,32.3107
7570,11358.7,0.481226,3.25976,1.22291,1.14277,4.27235,3.43843,0.000677109,32.2364
7611,11400,-0.480845,3.10156,1.22296,1.14821,4.27254,3.45533,-6.15597e-05,32.3546
7652,11441.2,-0.480845,3.10926,1.22404,1.1521,4.27603,3.46716,-0.0152041,32.4729
7693,11482.3,-3.84922,2.53833,1.22404,1.16431,4.27603,3.50086,-0.00258532,32.3647
7734,11523.5,-0.962068,2.97568,1.22618,1.18348,4.28301,3.55375,-0.000369358,32.2295
7775,11564.7,0.000378419,3.1508,1.23044,1.1898,4.29765,3.57251,0.0,32.2329
7817,11605.2,0.000190588,3.15604,1.23045,1.1898,4.29766,3.57251,0.0,32.0977
7858,11646.4,-0.962068,2.97845,1.23045,1.19519,4.29766,3.58891,-0.00080018,32.1721
7899,11687.5,-0.480657,3.05478,1.23151,1.19826,4.30108,3.59818,-0.00036931,32.0369
7940,11728.7,-0.480845,3.03693,1.23258,1.20429,4.30449,3.61628,-0.000307751,31.976
7981,11769.9,-0.962068,2.93198,1.23258,1.21056,4.30449,3.63512,-0.000923347,32.4221
8022,11811.1,-0.480657,3.00861,1.23365,1.2137,4.30786,3.64442,-0.000430918,32.4356
8063,11852.3,-2.40555,2.57865,1.23365,1.23104,4.30786,3.68932,-0.002277565,32.1822
8104,11893.5,-0.96188,2.73931,1.23578,1.24626,4.31438,3.72901,-0.001107979,32.2701
8145,11934.7,0.000190588,2.92951,1.24008,1.25018,4.32813,3.73967,6.15597e-05,32.1653
8187,11975.2,-0.480657,2.85688,1.24008,1.25046,4.32814,3.74046,-0.0158813,32.4323
8228,12016.4,0.481226,2.94552,1.24051,1.25713,4.3294,3.75904,0.002154446,32.0741
8269,12057.6,-0.480657,2.77624,1.24115,1.25985,4.33128,3.76664,-0.000800228,32.1011
8310,12098.8,-0.480845,2.71499,1.24222,1.26589,4.33438,3.78295,-0.000984907,31.9524
8351,12140,0.481226,2.75654,1.24259,1.27262,4.3354,3.80058,0.004801273,32.5303
8392,12181.2,-0.480657,2.55403,1.24329,1.2753,4.33733,3.80751,-0.002277517,32.4695
8434,12617.3,1.09994,3.25853,1.27998,1.27744,4.45177,3.81288,0.000800228,32.5172
8475,12822.5,1.10013,3.41857,1.34267,1.27744,4.66256,3.81288,6.15597e-05,32.152
8516,13027.7,1.09994,3.44319,1.40538,1.27744,4.87768,3.81288,6.15597e-05,31.7529
8557,13232.9,1.09994,3.4712,1.46808,1.27744,5.09449,3.81288,6.15597e-05,31.7428
8598,13438.1,1.09975,3.49182,1.53078,1.27744,5.31282,3.81288,0.000123119,31.7529
8639,13643.3,1.09994,3.50382,1.59349,1.27744,5.53219,3.81288,6.15597e-05,32.0372
8680,13848.6,1.09994,3.50813,1.65619,1.27744,5.75205,3.81288,6.15597e-05,32.1586
8721,14053.8,1.10013,3.51213,1.7189,1.27744,5.97216,3.81288,0.0,32.2092
8762,14259,1.09994,3.51706,1.7816,1.27744,6.19252,3.81288,-6.15597e-05,32.3208
8803,14464.2,1.09994,3.52352,1.8443,1.27744,6.41326,3.81288,0.0,32.4155
8844,14669.4,1.09975,3.53029,1.90699,1.27744,6.63437,3.81288,0.0,32.6219
8885,14874.6,1.09994,3.53829,1.96969,1.27744,6.85597,3.81288,0.0,32.8824
8926,15079.8,1.09975,3.5463,2.03239,1.27744,7.07808,3.81288,0.0,32.9298
8967,15285,1.09994,3.55461,2.09509,1.27744,7.30067,3.81288,0.0,32.6858
9008,15490.2,1.09994,3.56907,2.15779,1.27744,7.52392,3.81288,0.0,32.385
9049,15693.9,0.948174,3.60016,2.21882,1.27744,7.74283,3.81288,0.0,32.5337
9090,15899.2,0.393885,3.60047,2.25583,1.27744,7.87607,3.81288,6.1512e-05,32.5404
9131,16104.4,0.179945,3.60016,2.27101,1.27744,7.93073,3.81288,0.0,32.6417
9172,16309.6,0.105188,3.60016,2.27883,1.27744,7.95885,3.81288,0.0,32.3174
9213,16514.7,0.0710029,3.60016,2.28374,1.27744,7.97654,3.81288,0.0,32.2938
9278,16806.3,-0.00131206,3.55584,2.28661,1.27744,7.98688,3.81288,-0.000123119,32.1316
9319,16847.5,0.000190588,3.48505,2.28763,1.28267,7.9905,3.82996,-6.15597e-05,32.0572
9360,16888.6,-2.02237,3.07386,2.28774,1.29366,7.99087,3.86488,-0.0168046,32.0876
9401,16929.8,0.000190588,3.39518,2.29012,1.29804,7.99904,3.87828,-0.000246191,31.9963
9442,16971,-0.560109,3.26745,2.29021,1.30844,7.99936,3.91058,-0.0124957,31.949
9483,17012.2,-0.894449,3.20405,2.29043,1.31598,8.00011,3.93458,-0.00646329,31.949
9524,17053.4,-0.382421,3.28099,2.29074,1.32197,8.00115,3.95387,-0.0143424,31.9321
9565,17094.6,-0.569689,3.24406,2.29074,1.32895,8.00117,3.97626,0.00510912,31.9016
9606,17135.8,-0.827957,3.19297,2.29112,1.34169,8.00245,4.01523,0.0140346,31.9456
9647,17177,-0.59035,3.23544,2.29191,1.34776,8.00514,4.03457,-0.009541035,31.8104
9688,17218.1,0.162289,3.3484,2.29195,1.35579,8.00527,4.06014,0.0317009,31.8847
9729,17259.3,-0.0986086,3.31208,2.29231,1.36032,8.00648,4.07472,0.0106491,31.7495
9770,17300.5,0.000190588,3.33947,2.29423,1.36175,8.01302,4.07932,0.000123119,31.8678
9811,17341.7,0.3702178,3.38748,2.29517,1.36757,8.0162,4.0976,0.01895895,31.851
9852,17382.9,0.0676219,3.32931,2.29591,1.37617,8.01871,4.12323,0.00424728,31.8814
9894,17423.3,-1.24964,3.12988,2.29727,1.38065,8.02332,4.13704,-0.000615549,31.6278
9935,17464.5,-1.57515,3.0754,2.29828,1.38747,8.02675,4.15797,0.00677109,31.763
9976,17505.7,0.333966,3.3721,2.29894,1.39677,8.02897,4.18644,0.004678202,31.7495
10017,17547,-1.28119,3.12003,2.30076,1.40197,8.03514,4.20183,0.0472744,31.7664
10058,17588.2,-2.34056,2.96491,2.30107,1.40889,8.0362,4.22368,-0.0513985,31.7968
10099,17629.4,-0.304659,3.27299,2.30124,1.4172,8.03677,4.25001,0.0226523,31.8138
10140,17670.5,-0.929949,3.17974,2.30139,1.42275,8.03724,4.26781,0.0111414,31.8712
10181,17711.7,-0.313863,3.26745,2.30157,1.43206,8.03785,4.29668,0.00775595,31.7968
10222,17752.9,-0.433699,3.25206,2.30251,1.44166,8.04104,4.32626,-0.00326242,31.8847
10263,17794.1,-0.390122,3.25668,2.30255,1.4493,8.04119,4.35049,0.0249299,31.8543
10304,17835.3,-0.750758,3.20467,2.30268,1.45619,8.04162,4.37234,-0.008309936,31.7935
10345,17876.5,0.291141,3.3684,2.30326,1.46056,8.04359,4.38641,0.007509708,31.8374
10386,17917.7,-0.616834,3.23421,2.30524,1.46266,8.0503,4.39301,-0.0277614,31.7461
10427,17958.9,0.242305,3.36132,2.30644,1.46857,8.05436,4.41148,-0.00541687,31.7901
10468,18000.1,0.000190588,3.3247,2.30788,1.47495,8.05923,4.43015,6.15597e-05,31.8205
10510,18040.5,0.297715,3.37086,2.30879,1.48021,8.06231,4.44638,-0.007694435,31.9118
10551,18081.7,-0.244553,3.27822,2.30901,1.48862,8.06305,4.47217,-0.009048605,31.7191
10592,18122.9,0.605007,3.41734,2.31101,1.49556,8.06981,4.4932,0.0149579,31.7191
10633,18164.1,-1.46207,3.08248,2.31138,1.50511,8.07107,4.52222,-0.001785135,31.7495
10674,18205.2,-0.107624,3.29361,2.3117,1.51163,8.07212,4.54276,0.0193283,31.9287
10715,18246.5,-0.0199073,3.30839,2.31198,1.5184,8.07307,4.56432,-0.0012311,31.8239
10756,18287.7,-1.0588,3.14865,2.31201,1.52402,8.07317,4.58231,-0.0100335,31.8678
10797,18328.9,-0.279678,3.2576,2.31238,1.53589,8.07441,4.61852,0.0488748,31.807
10838,18370.1,-0.82157,3.18066,2.31316,1.54306,8.07705,4.64087,0.00289307,31.7766
10879,18411.3,-0.333773,3.24622,2.31316,1.55172,8.07706,4.66824,0.0243143,31.7597
10920,18452.5,-0.718451,3.19913,2.31355,1.55651,8.07838,4.68346,-0.007632875,31.7293
10961,18493.7,0.105376,3.33547,2.31544,1.55932,8.08476,4.69248,0.00295463,31.7293
11002,18534.9,-0.488358,3.24098,2.31627,1.56327,8.08754,4.70481,-0.0158812,31.7428
11043,18576.1,-1.91606,3.01292,2.31712,1.56926,8.09042,4.72333,-0.002277517,31.682
11085,18616.3,-2.04022,2.99476,2.31849,1.57488,8.09504,4.73957,-0.0516448,31.7564
11126,18657.5,-2.08286,2.98707,2.31952,1.58042,8.0985,4.75667,-0.0251145,31.8476
11167,18698.7,-0.818941,3.1585,2.31962,1.59393,8.09885,4.79749,0.0400108,31.7935
11208,18739.9,-0.113823,3.29115,2.322,1.59433,8.10682,4.79876,-0.0034471,31.8712
11249,18781.1,-0.54452,3.20959,2.32212,1.60537,8.10724,4.83237,-0.0126804,31.7563
11290,18822.3,-0.118894,3.27022,2.32246,1.61341,8.10836,4.85751,-0.003200912,31.9389
11331,18863.5,-0.831525,3.16404,2.32262,1.61901,8.10891,4.87532,-0.0111415,31.9559
11372,18904.7,0.566126,3.36532,2.32269,1.62829,8.10912,4.90381,0.109322,31.9458
11413,18945.9,0.538139,3.36563,2.32318,1.63848,8.11078,4.93494,0.0125573,31.875
11454,18987.1,-0.921497,3.14188,2.32378,1.64553,8.11279,4.95708,0.00036931,31.8615
11495,19028.3,0.0668706,3.29115,2.32384,1.65297,8.11297,4.98043,0.0330551,31.8345
11536,19069.5,-0.470326,3.2139,2.32417,1.65764,8.11411,4.99532,0.0110799,31.9089
11577,19110.7,-1.15704,3.11172,2.32609,1.65977,8.12055,5.00193,0.00344706,31.9089
11618,19151.9,-1.04471,3.13018,2.32729,1.66424,8.12455,5.01584,-0.0331167,31.8955
11659,19193.1,0.444975,3.3564,2.32882,1.67244,8.12971,5.03984,-0.005293751,31.9259
11701,19233.4,-0.184823,3.2576,2.32934,1.67739,8.13143,5.05493,-0.0164352,31.9698
11742,19274.6,-0.045828,3.27053,2.33014,1.68577,8.13412,5.08034,0.0307775,31.9394
11783,19315.8,0.246625,3.32439,2.33138,1.69302,8.13824,5.10215,-0.00166197,31.9833
11824,19357,-0.640689,3.17912,2.33263,1.70014,8.14242,5.12334,0.006832647,32.0272
11865,19398.2,-1.41925,3.06063,2.33294,1.70744,8.14347,5.14601,0.00338554,32.0541
11906,19439.4,-0.97747,3.13049,2.33313,1.71453,8.14408,5.16835,-0.00080018,31.9898
11947,19480.6,-0.462437,3.21174,2.33325,1.71978,8.1445,5.18501,-0.00295463,31.7936
11988,19521.8,-1.1807,3.09448,2.33343,1.72973,8.14508,5.21548,-0.0175432,31.9119
12029,19563,-0.46657,3.20651,2.33436,1.73946,8.14822,5.24505,0.0156966,31.9119
12070,19604.2,-0.722771,3.16589,2.33441,1.74703,8.14836,5.2688,0.0220367,31.8071
12111,19645.4,-0.146693,3.2573,2.33455,1.75323,8.14882,5.28831,0.006155491,31.7632
12152,19686.6,0.686713,3.39456,2.33585,1.75671,8.15322,5.29936,0.0160043,31.8376
12193,19727.8,0.277429,3.32685,2.33714,1.76056,8.15752,5.31128,0.0470897,31.9119
12234,19769,0.000190588,3.28715,2.33837,1.76474,8.16163,5.32414,0.000123119,31.9254
12276,19809.3,0.000378419,3.28777,2.33974,1.77114,8.16622,5.34263,0.000123119,31.895
12317,19850.5,2.75712e-06,3.28777,2.34076,1.77638,8.16964,5.35861,6.15597e-05,31.8341
12358,19891.7,-1.95025,2.9766,2.34086,1.78624,8.16998,5.38857,-0.0386566,31.8172
12399,19932.9,0.003571548,3.2893,2.34324,1.79174,8.1779,5.40489,-0.003693294,31.7394
12440,19974,-0.145379,3.25206,2.34333,1.80204,8.17821,5.4359,-0.01169548,31.7089
12481,20015.2,-0.688962,3.16804,2.34355,1.8092,8.17894,5.45818,-0.000184679,31.8273
12522,20056.4,-0.469011,3.2059,2.34386,1.81531,8.17995,5.47746,0.003631735,31.7968
12563,20097.6,-0.849182,3.1425,2.34386,1.82205,8.17997,5.4987,-0.004062653,31.8408
12604,20138.8,-0.818189,3.13696,2.34423,1.83485,8.18122,5.53709,0.0381026,31.7056
12645,20180,-0.276672,3.22929,2.34502,1.84096,8.18385,5.5562,0.0212981,31.8104
12686,20221.2,-0.870031,3.13542,2.34502,1.8492,8.18385,5.58198,-0.0105875,31.7799
12727,20262.4,-0.457554,3.2062,2.34542,1.8537,8.18518,5.59621,0.0110184,31.7799
12768,20303.6,0.000190588,3.28838,2.34734,1.85547,8.19163,5.6018,6.15597e-05,31.7664
12809,20344.8,0.0788918,3.29115,2.34815,1.86129,8.19432,5.61979,0.0541685,31.6785
12850,20386,-0.01352108,3.26191,2.349,1.86989,8.19715,5.64498,0.116955,31.6481
12892,20426.4,-1.06594,3.10864,2.35039,1.8736,8.20179,5.65622,0.00726347,31.7225
12933,20467.6,-1.16868,3.0871,2.35139,1.88035,8.20516,5.67658,0.0350249,31.7968
12974,20508.8,0.198165,3.29792,2.3519,1.89044,8.20684,5.70698,-0.004062653,31.8104
13015,20550,-2.84658,2.8301,2.35388,1.89465,8.21342,5.71917,-0.007879066,31.736
13056,20591.1,-0.67093,3.17019,2.35406,1.90197,8.21403,5.74187,-0.0254838,31.8239
13097,20632.4,-0.399514,3.2062,2.35437,1.91061,8.21505,5.76867,0.0114492,31.7326
13138,20673.6,-0.473707,3.19697,2.35451,1.91628,8.21552,5.78658,0.002339077,31.5974
13179,20714.8,0.0963601,3.27669,2.35467,1.92565,8.21607,5.81514,0.0392722,31.7022
13220,20756,-0.3349,3.21544,2.35562,1.93501,8.21922,5.84345,0.0149579,31.6887
13261,20797.2,-1.20888,3.07755,2.35566,1.94276,8.21936,5.8676,-0.0343478,31.6887
13302,20838.4,-0.0670529,3.25422,2.35579,1.9498,8.21979,5.88959,-0.002462244,31.7191
13343,20879.5,0.404779,3.3327,2.35623,1.95425,8.22124,5.90369,0.007694387,31.763
13384,20920.7,0.134302,3.29885,2.35834,1.95626,8.2283,5.90987,-0.002277517,31.6413
13425,20962,0.439903,3.33947,2.35937,1.96229,8.23172,5.92841,0.0157581,31.6109
13466,21003.2,0.000190588,3.27392,2.361,1.96866,8.23716,5.94673,6.15597e-05,31.6988
13508,21043.5,0.522737,3.35301,2.36166,1.97389,8.23938,5.96264,0.00640173,31.6988
13549,21084.7,0.187458,3.29146,2.36209,1.98226,8.24082,5.98784,0.0216674,31.5332
13590,21125.9,0.161537,3.29577,2.36381,1.98926,8.24651,6.00871,-0.005663061,31.638
13631,21167.1,-1.4138,3.03724,2.3645,1.9982,8.24881,6.03535,0.0103413,31.682
13672,21208.3,-0.740991,3.1425,2.36482,2.00498,8.24986,6.0563,-0.00252376,31.638
13713,21249.5,-1.04359,3.09756,2.3651,2.01175,8.25079,6.07747,-0.03711772,31.4757
13754,21290.7,-0.379604,3.19943,2.36513,2.01708,8.25089,6.09432,0.0024622,31.5872
13795,21331.8,0.150831,3.26437,2.36533,2.02949,8.25157,6.13149,0.0829148,31.4858
13836,21373.1,-0.920557,3.10987,2.36628,2.03641,8.25472,6.15269,-0.0240681,31.5805
13877,21414.2,-1.15647,3.0674,2.36628,2.04473,8.25472,6.17854,-0.0325627,31.6279
13918,21455.4,0.0837754,3.26468,2.36666,2.05008,8.25596,6.19521,0.0024622,31.4826
13959,21496.6,0.199667,3.29392,2.36847,2.05298,8.262,6.20434,-0.0148348,31.6788
14000,21537.8,0.005637689,3.25976,2.3694,2.05684,8.26506,6.21615,-0.004431963,31.7567
14041,21579,-1.88,2.96522,2.37025,2.06185,8.26789,6.23144,-0.0405648,31.8615
14083,21619.3,-1.6407,3.00677,2.37162,2.06752,8.27243,6.24748,-0.0497365,31.9089
14124,21660.5,-0.935959,3.10802,2.37264,2.07339,8.27581,6.26521,-0.0292387,31.8785
14165,21701.7,-2.20213,2.8895,2.37275,2.08672,8.27616,6.30477,0.00129266,31.7871
14206,21742.9,0.000190588,3.25422,2.37512,2.08802,8.28399,6.30867,6.1512e-05,31.831
14247,21784.1,-0.130164,3.21852,2.37525,2.09879,8.2844,6.3408,-0.002092886,31.9054
14288,21825.3,-0.0249788,3.23113,2.37558,2.10671,8.28551,6.36511,0.0281307,31.7567
14329,21866.5,-0.558231,3.14988,2.37575,2.11248,8.28604,6.38313,0.002708435,31.875
14370,21907.7,-1.06312,3.06093,2.37575,2.12076,8.28604,6.4085,-0.00634017,31.9054
14411,21948.9,0.152334,3.24591,2.37615,2.13217,8.28739,6.44235,0.0300389,31.831
14452,21990.1,-0.928258,3.08094,2.3769,2.13898,8.28986,6.46331,0.002708435,31.831
14493,22031.3,-1.03157,3.06555,2.37695,2.14627,8.29001,6.48581,-0.0288693,31.7567
14534,22072.5,-0.102553,3.21113,2.37729,2.15104,8.29116,6.50068,0.0224677,31.7262
14575,22113.8,-1.64596,2.98399,2.37921,2.15259,8.2975,6.50548,-0.0427808,31.8445
14616,22154.9,0.003008054,3.23544,2.38041,2.15754,8.30143,6.52049,-0.002769995,31.9019
14657,22196.2,0.635623,3.32378,2.38164,2.16614,8.30546,6.54524,0.002400637,31.9458
14699,22236.4,0.13881,3.24498,2.38241,2.17108,8.30801,6.56,0.002400637,31.9424
14740,22277.6,-0.129413,3.18989,2.38327,2.17931,8.31083,6.5844,0.0408111,32.0607
14781,22318.8,0.28081,3.26376,2.38434,2.18672,8.31434,6.60622,-0.000800228,31.9693
14822,22360,-0.854065,3.07632,2.38575,2.19345,8.31896,6.62572,0.000984859,32.0572
14863,22401.2,-1.54228,2.97168,2.38606,2.20048,8.31999,6.64707,-0.009541035,31.9625
14904,22442.4,-0.586782,3.11787,2.38625,2.20784,8.32059,6.66971,-0.0198207,31.9321
14945,22483.6,-0.732538,3.09756,2.38637,2.21319,8.321,6.68627,-0.0165583,32.0504
14986,22524.8,-0.832089,3.07201,2.38656,2.22273,8.3216,6.7148,-0.0130497,31.9895
15027,22566,-0.976155,3.04708,2.38749,2.23299,8.32465,6.74517,0.0144039,31.9287
15068,22607.2,-1.44573,2.97168,2.38753,2.24045,8.32479,6.76798,-0.0259763,31.9726
15109,22648.4,0.04527,3.20343,2.38766,2.24677,8.3252,6.78731,0.0186512,31.9726
15150,22689.6,0.485546,3.28038,2.38867,2.25047,8.3285,6.79876,0.00178509,31.9726
15191,22730.8,-0.695348,3.09171,2.39023,2.25422,8.33363,6.81005,0.0198208,32.0943
15232,22772,0.000190588,3.20282,2.39151,2.25849,8.33777,6.82286,0.000123072,31.9456
15274,22812.3,0.000190588,3.20128,2.39288,2.26489,8.34223,6.84076,0.000123119,31.976
15315,22853.5,0.000190588,3.19943,2.39389,2.27017,8.34555,6.85639,-0.000677109,32.0538
15356,22894.7,-1.03589,3.02339,2.394,2.27921,8.34588,6.88303,-0.0200054,32.1451
15397,22935.9,0.0428282,3.20313,2.39636,2.28552,8.35355,6.90116,-0.007571316,32.2498
15438,22977.1,0.250006,3.21267,2.39645,2.29572,8.35382,6.93085,0.0301004,32.2059
15479,23018.3,-0.681448,3.06709,2.39668,2.30261,8.35458,6.95159,0.0256685,32.2229
15520,23059.5,-0.390122,3.11356,2.39696,2.309,8.35549,6.97108,-0.000307751,32.2837
15561,23100.7,-1.4215,2.95014,2.39699,2.31531,8.35558,6.99034,-0.019513,32.135
15602,23141.9,-1.27067,2.95383,2.39737,2.32798,8.3568,7.02696,0.0253607,32.2094
15643,23183.1,-0.971272,3.00954,2.39816,2.33432,8.35935,7.04607,-0.000677109,32.2229
15684,23224.3,-0.535316,3.06955,2.39816,2.34235,8.35935,7.0703,-0.00301623,32.2364
15725,23265.5,-0.457554,3.08463,2.39855,2.34722,8.36063,7.08504,0.00750976,32.2498
15766,23306.7,0.000190588,3.17266,2.40047,2.34924,8.36683,7.0912,0.0,32.0842
15807,23347.9,-0.835094,3.02,2.40127,2.35487,8.3694,7.10789,0.0121264,32.2364
15848,23389.1,-3.84527,2.51679,2.40213,2.3629,8.37215,7.13035,-0.0653716,32.1654
15890,23429.4,-1.17657,2.9369,2.40351,2.36672,8.37658,7.14119,0.008679247,32.108
15931,23470.6,-2.27782,2.74362,2.40452,2.3731,8.37979,7.15951,-0.0317009,32.2468
15972,23511.8,0.319316,3.10495,2.4049,2.38425,8.38097,7.19086,0.0179741,32.2503
16013,23553,-2.63546,2.65221,2.40701,2.38689,8.38756,7.19805,-0.0156966,32.1016
16054,23594.2,0.16567,3.05324,2.40717,2.39559,8.38805,7.2226,0.0144039,32.3112
16095,23635.4,0.08077012,2.99076,2.40747,2.40408,8.38897,7.24663,0.0146502,32.3281
16136,23676.6,-0.0101401,2.94952,2.40763,2.40963,8.38946,7.2625,-0.000246191,32.3416
16177,23717.8,-0.975404,2.71376,2.40779,2.41907,8.38993,7.28786,-0.0115724,32.2503
16218,23759,-0.830962,2.65498,2.40874,2.42862,8.39266,7.31245,-0.0380411,32.3551
16259,23800.2,-0.0895927,2.62913,2.40879,2.43613,8.39279,7.33175,0.0209288,32.3515
16301,24195.5,1.09994,3.15881,2.43018,2.44113,8.45775,7.34359,0.0012311,32.3647
16342,24400.5,1.09994,3.40626,2.49283,2.44113,8.66509,7.34359,0.000246191,32.2837
16383,24605.6,1.10013,3.43581,2.55549,2.44113,8.8796,7.34359,0.0,32.2837
16424,24810.6,1.09994,3.46474,2.61814,2.44113,9.09575,7.34359,6.15597e-05,31.7563
16465,25015.6,1.09994,3.48659,2.68079,2.44113,9.31354,7.34359,0.0,31.6414
16506,25220.7,1.10013,3.50136,2.74344,2.44113,9.5325,7.34359,0.0,31.8241
16547,25425.7,1.09994,3.5069,2.80608,2.44113,9.75205,7.34359,0.0,32.0133
16588,25630.8,1.10013,3.51059,2.86873,2.44113,9.97186,7.34359,6.15597e-05,31.9963
16629,25835.8,1.09994,3.51583,2.93138,2.44113,10.192,7.34359,0.0,32.0911
16670,26040.8,1.10013,3.52198,2.99404,2.44113,10.4124,7.34359,6.15597e-05,32.3141
16711,26245.9,1.09994,3.52845,3.05668,2.44113,10.6332,7.34359,0.0,32.3647
16752,26450.9,1.09994,3.53583,3.11934,2.44113,10.8546,7.34359,0.0,32.5506
16793,26656,1.09994,3.54383,3.182,2.44113,11.0764,7.34359,-6.15597e-05,32.5541
16834,26861,1.09994,3.55184,3.24465,2.44113,11.2986,7.34359,0.0,32.8849
16875,27066.1,1.09994,3.56322,3.3073,2.44113,11.5215,7.34359,0.0,32.7397
16916,27269.1,1.10013,3.60016,3.36934,2.44113,11.7434,7.34359,0.000307798,32.5845
16957,27474.2,0.516914,3.60016,3.41581,2.44113,11.9107,7.34359,0.0,32.3951
16998,27679.2,0.213755,3.60016,3.43492,2.44113,11.9795,7.34359,0.0,32.7329
17039,27884.3,0.116646,3.60016,3.4439,2.44113,12.0118,7.34359,0.0,32.4829
17080,28089.4,0.0756987,3.60016,3.44923,2.44113,12.031,7.34359,0.0,32.4999
17145,28403.1,0.000190588,3.55676,3.45269,2.44113,12.0434,7.34359,-6.15597e-05,32.2599
17186,28444.4,-0.45267,3.41088,3.45338,2.44588,12.0459,7.359,-0.0361329,32.1112
17227,28485.6,-1.36891,3.19697,3.4542,2.45437,12.0488,7.38638,-0.0439504,32.2025
17268,28526.7,0.000378419,3.40318,3.45699,2.46073,12.059,7.40692,-0.0273921,32.2194
17309,28567.9,-1.39352,3.18343,3.45699,2.46128,12.059,7.40869,-0.0440119,32.2059
17350,28609,-1.01316,3.1625,3.45839,2.48281,12.0639,7.47114,0.0500443,32.2229
17391,28650.2,-1.29096,3.10956,3.45839,2.5038,12.0639,7.53377,0.007817507,32.0607
17432,28691.4,-1.23762,3.12926,3.45906,2.51715,12.0662,7.57362,-0.0506599,32.0911
17473,28732.5,0.000190588,3.3444,3.46485,2.5199,12.0863,7.58229,-0.013973,32.0472
17514,28773.6,-1.82196,3.0397,3.46485,2.53107,12.0863,7.61597,-0.0429039,32.0911
17555,28814.9,-2.73331,2.89874,3.46816,2.53953,12.098,7.6412,0.0208056,32.0607
17596,28856,-3.22055,2.8298,3.47026,2.54446,12.1054,7.65596,-0.0327473,32.0876
17637,28897.2,1.33511,3.53091,3.47107,2.55562,12.1083,7.68936,0.0242527,32.1146
17678,28938.3,-1.13525,3.14988,3.47343,2.56187,12.1166,7.70909,-0.0232063,31.9625
17719,28979.5,-0.209429,3.29361,3.47477,2.56556,12.1213,7.72063,0.0321933,31.9456
17760,29020.8,0.000190588,3.33085,3.47645,2.57113,12.1272,7.73834,-0.0286847,31.9456
17801,29062,-1.30073,3.1188,3.47645,2.57659,12.1272,7.75521,0.00535526,31.8408
17842,29103.2,-1.53927,3.09079,3.47804,2.5797,12.1327,7.76512,-0.00664797,31.9152
17883,29144.3,-1.14502,3.13849,3.4792,2.58921,12.1368,7.79451,0.02345252,31.7968
17924,29185.4,-1.18352,3.13203,3.48095,2.59766,12.1428,7.82052,0.0136652,31.8577
17965,29226.6,-0.306913,3.27515,3.48131,2.60413,12.144,7.84078,0.00166197,31.9355
18006,29267.9,0.136368,3.34286,3.48274,2.61009,12.1489,7.85973,-0.008309936,31.878
18047,29309.1,-0.243802,3.28684,3.48323,2.61507,12.1506,7.87566,0.00504751,31.8645
18088,29350.2,0.472961,3.39518,3.4838,2.61972,12.1525,7.89057,0.0481977,31.9559
18129,29391.5,0.126413,3.34347,3.48593,2.62714,12.1599,7.91327,0.000738668,31.9863
18170,29432.7,0.000190588,3.33055,3.48724,2.63006,12.1644,7.92259,0.000123119,32.0911
18211,29473.8,0.0148414,3.31639,3.48724,2.63721,12.1644,7.94455,0.0326858,32.0911
18252,29515,-1.93898,3.02123,3.48903,2.64095,12.1705,7.95617,-0.0193284,32.0607
18293,29556.2,0.000378419,3.32901,3.49057,2.64567,12.1758,7.97121,6.15597e-05,32.162
18334,29597.3,0.000190588,3.32716,3.49181,2.65034,12.1801,7.98513,0.000184679,32.0673
18375,29638.6,0.682017,3.42903,3.49236,2.65607,12.182,8.00326,0.0355789,32.1687
18416,29679.7,-1.028,3.15696,3.49268,2.66138,12.1831,8.01968,0.0012311,32.1383
18457,29720.9,0.000190588,3.32624,3.49508,2.66659,12.1916,8.03591,0.0,31.9726
18498,29762.2,0.33622,3.37394,3.4955,2.67126,12.193,8.05028,0.008433056,32.0335
18540,29803.3,-0.896139,3.18158,3.49598,2.67407,12.1946,8.05892,0.0343478,31.9591
18581,29844.5,-0.2145,3.28253,3.49744,2.68215,12.1996,8.08377,0.0111415,31.976
18622,29885.6,-1.21301,3.12618,3.49766,2.68971,12.2004,8.10768,-0.01822033,31.8408
18663,29926.8,0.000190588,3.32808,3.50028,2.69084,12.2097,8.11123,6.15597e-05,31.9456
18704,29967.9,-2.97205,2.85565,3.50168,2.7003,12.2146,8.13946,-0.046351,32.0808
18745,30009.1,-1.91963,2.98553,3.50168,2.72666,12.2146,8.21478,-0.03650222,31.8712
18786,30050.2,-3.84922,2.70238,3.50178,2.74126,12.2149,8.25871,-0.084269,31.9016
18827,30091.3,0.453239,3.38071,3.50581,2.74994,12.2288,8.28423,-0.0153273,31.9016
18868,30132.5,-2.022,2.98799,3.50814,2.75561,12.2368,8.30108,0.0281307,31.949
18909,30173.8,0.000190588,3.31239,3.51145,2.76363,12.2485,8.32554,0.0,31.9524
18950,30214.8,0.000190588,3.309,3.51354,2.77133,12.2558,8.34794,6.15597e-05,31.9085
18991,30256,-0.609321,3.19759,3.51356,2.78426,12.2559,8.38594,0.000123119,31.878
19032,30297.2,-1.34506,3.09171,3.51672,2.7886,12.2669,8.3996,0.00473976,31.8915
19073,30338.3,0.000190588,3.30592,3.51806,2.79283,12.2716,8.41288,6.1512e-05,31.8746
19114,30379.5,-0.311797,3.24837,3.51811,2.79902,12.2717,8.43231,0.01268034,31.9186
19155,30420.7,0.000190588,3.30562,3.51974,2.80124,12.2774,8.43915,0.000123119,31.9186
19196,30462,0.000378419,3.30254,3.52133,2.80807,12.2829,8.46023,0.000123119,31.9321
19237,30503.2,-0.0439497,3.293,3.52249,2.81342,12.2869,8.47689,-0.001354218,31.8881
19278,30544.5,-1.71546,3.03293,3.52424,2.82148,12.2929,8.50159,-0.0531221,31.9016
19319,30585.5,-0.399326,3.21975,3.5243,2.83349,12.2931,8.53817,0.0304082,31.9016
19360,30626.6,-1.1206,3.1148,3.52583,2.83795,12.2982,8.5522,0.002646875,31.9016
19401,30667.9,-0.774613,3.16958,3.52646,2.84411,12.3004,8.57164,0.002708435,31.9016
19442,30709.1,-0.369837,3.23267,3.52698,2.84827,12.3021,8.58491,-0.008925485,31.9016
19483,30750.3,-0.798655,3.15635,3.52856,2.85667,12.3075,8.61042,0.0539839,31.8712
19524,30791.5,0.438588,3.35763,3.52957,2.8602,12.3109,8.62163,0.0113877,32.0369
19565,30832.6,-2.31445,2.93536,3.53054,2.86181,12.3142,8.62651,-0.0451815,32.0977
19606,30873.8,0.000190588,3.29454,3.53233,2.86761,12.3204,8.64416,0.000123119,32.1586
19647,30914.9,-0.248873,3.24683,3.53233,2.87579,12.3204,8.66964,0.004493522,32.2329
19688,30956.1,1.18916,3.46689,3.53422,2.88048,12.3268,8.68344,0.0336707,32.3208
19729,30997.3,-0.49681,3.20774,3.53513,2.88547,12.3299,8.69898,-0.016189,32.2599
19770,31038.6,-1.11064,3.11972,3.53597,2.88723,12.3328,8.70464,-0.0238218,32.2295
19811,31079.8,0.496628,3.35671,3.53636,2.89673,12.3341,8.73366,0.0344093,32.1991
19852,31121.1,-2.51449,2.89751,3.53836,2.89985,12.3411,8.74313,-0.0332397,32.1687
19894,31162.2,0.000190588,3.29331,3.53925,2.90141,12.3441,8.74791,6.15597e-05,32.1247
19935,31203.4,-0.189707,3.25945,3.5407,2.90863,12.349,8.76983,-0.03687153,32.1247
19976,31244.6,0.073069,3.29084,3.54078,2.91761,12.3493,8.79761,0.0118802,32.0943
20017,31285.8,0.000190588,3.29238,3.54356,2.92097,12.3591,8.80814,0.0,32.1247
20058,31326.9,-0.594483,3.18866,3.54371,2.92719,12.3596,8.82635,-0.0203132,32.1687
20099,31368,-1.99777,2.95291,3.54497,2.94796,12.3639,8.88535,0.0107106,32.0504
20140,31409.1,-1.38375,3.04893,3.54501,2.96764,12.3641,8.94304,0.007263517,31.976
20181,31450.4,0.019725,3.27361,3.54582,2.98008,12.3668,8.97955,0.0353942,32.0943
20222,31491.6,0.000190588,3.29361,3.55142,2.98017,12.386,8.97983,-6.15597e-05,31.9456
20263,31532.7,0.584533,3.36471,3.55163,2.99375,12.3867,9.02048,0.0328704,31.9726
20304,31573.9,0.862523,3.41734,3.55674,3.00143,12.4046,9.04266,-0.0180972,31.851
20345,31615,-0.750195,3.14957,3.55682,3.01244,12.4049,9.07427,0.0213596,31.7901
20386,31656.2,0.000190588,3.2893,3.56,3.01586,12.4159,9.08511,-6.1512e-05,31.7901
20427,31697.3,0.000190588,3.28777,3.56134,3.02294,12.4206,9.10719,-0.0475206,31.7597
20468,31738.5,-0.199662,3.25299,3.5614,3.02653,12.4207,9.11827,-0.00252376,31.8036
20509,31779.7,0.000190588,3.28746,3.56303,3.03136,12.4264,9.13334,0.000123119,31.7597
20550,31820.9,1.29153,3.48043,3.56391,3.03819,12.4295,9.1543,0.0107722,31.8645
20591,31861.9,-0.98442,3.12618,3.56464,3.04305,12.4319,9.16934,-0.0202517,31.8645
20632,31903.1,1.03796,3.43765,3.56636,3.05092,12.4378,9.19333,0.0249299,31.807
20673,31944.3,-0.404398,3.21236,3.56759,3.05911,12.442,9.21821,-0.00443201,31.8814
20714,31985.4,0.926198,3.42349,3.56837,3.06505,12.4446,9.23651,0.0246836,31.8341
20755,32026.6,-1.1884,3.0914,3.56962,3.07274,12.4488,9.26052,-0.00258532,31.7901
20796,32067.7,-0.379604,3.22467,3.57027,3.07595,12.451,9.27074,-0.0292387,31.7901
20837,32108.9,-0.623221,3.19082,3.57186,3.08009,12.4564,9.28381,-0.01914363,31.8814
20878,32150,-0.925441,3.13388,3.57255,3.08915,12.4587,9.31132,-0.01914363,31.9118
20919,32191.2,0.000190588,3.28715,3.57383,3.0903,12.4631,9.31495,0.0,31.9422
20960,32232.3,0.0633018,3.29392,3.5756,3.09756,12.4692,9.33692,-0.0300389,31.9726
21001,32273.5,-0.584715,3.18312,3.57562,3.10385,12.4692,9.35632,0.012311,32.0031
21042,32314.7,0.000190588,3.28592,3.57716,3.10592,12.4744,9.36289,6.15597e-05,31.8712
21083,32356,-0.379792,3.22036,3.57842,3.11253,12.4788,9.38263,-0.0129266,31.8712
21124,32397.1,0.000190588,3.28376,3.57928,3.11633,12.4817,9.3945,0.0,31.976
21165,32438.2,-0.823073,3.14711,3.57935,3.12322,12.4819,9.41569,-0.0150194,31.9456
21206,32479.4,0.000190588,3.28407,3.58167,3.12685,12.49,9.42667,0.000123119,31.9591
21247,32520.6,0.000190588,3.28315,3.58257,3.13154,12.493,9.44089,0.000123072,31.8543
21289,32561.4,-0.175056,3.2536,3.58327,3.13608,12.4953,9.45461,-0.009417916,31.9287
21330,32602.6,-0.892007,3.1348,3.58408,3.14417,12.4981,9.4794,0.008248377,31.8983
21371,32643.9,0.000190588,3.28223,3.58688,3.15111,12.5079,9.50095,-0.0363791,31.8983
21412,32685.1,0.000190588,3.285,3.58688,3.15111,12.5079,9.50095,-6.15597e-05,31.9422
21453,32726.3,-2.49477,2.85442,3.58829,3.17235,12.5128,9.56066,0.0411804,31.8983
21494,32767.5,-1.54904,2.99569,3.58829,3.19342,12.5128,9.62186,0.000123119,31.8239
21535,32808.7,0.764663,3.35948,3.58867,3.20748,12.514,9.66283,0.0243758,31.7495
21576,32849.9,0.823642,3.40441,3.59456,3.21029,12.5341,9.67152,0.010095,31.8239
21617,32891,-0.04845766,3.24529,3.59475,3.22099,12.5348,9.703,0.0309007,31.8239
21658,32932.3,-1.13506,3.07571,3.59805,3.22909,12.5462,9.72671,0.0581081,31.8239
21699,32973.4,-2.75792,2.84118,3.60014,3.23347,12.5535,9.73969,-0.0430886,31.7799
21740,33014.6,0.984425,3.40811,3.60042,3.24598,12.5544,9.77612,0.0377949,31.7664
21781,33055.7,-0.369837,3.20066,3.60332,3.25203,12.5644,9.79483,0.000184679,31.7225
21822,33096.8,-1.06237,3.09725,3.60466,3.25571,12.5691,9.8061,0.00646329,31.6041
21863,33137.9,0.940849,3.41088,3.60628,3.26149,12.5747,9.82408,-0.01803565,31.7529
21904,33179,-1.49081,3.02523,3.60635,3.26611,12.5749,9.83809,0.002646875,31.8273
21945,33220.2,-1.31557,3.06247,3.60795,3.26929,12.5803,9.84799,-0.0294849,31.8712
21986,33261.4,-1.56425,3.00677,3.60911,3.27873,12.5843,9.87653,0.0153888,31.8408
22027,33302.6,-1.05749,3.07971,3.61087,3.28754,12.5902,9.903,0.04173436,31.7799
22068,33343.8,0.453239,3.31854,3.61111,3.29445,12.591,9.92417,0.0143424,31.7799
22109,33384.9,0.428821,3.31362,3.61253,3.30047,12.5958,9.94285,0.0320086,31.8239
22150,33426.1,-0.40421,3.18897,3.61315,3.30533,12.5978,9.95805,-0.004678154,31.7495
22191,33467.2,-0.998695,3.09541,3.61367,3.30983,12.5996,9.97215,-0.0349633,31.8239
22232,33508.4,0.560491,3.33239,3.61543,3.31752,12.6055,9.99512,0.0136652,31.9726
22273,33549.5,0.000190588,3.25606,3.61716,3.32042,12.6114,10.0042,6.15597e-05,32.047
22314,33590.8,-1.05279,3.07509,3.61716,3.32717,12.6114,10.0244,-0.009417916,31.9726
22355,33631.9,-1.33529,3.0397,3.61895,3.33023,12.6174,10.0337,-0.01175704,32.0166
22396,33673.1,2.75712e-06,3.25206,3.62049,3.33601,12.6226,10.0515,-0.0225292,31.9726
22437,33714.3,2.75712e-06,3.24899,3.62173,3.34069,12.6268,10.0651,6.15597e-05,32.0166
22478,33755.5,0.116458,3.26068,3.62197,3.34643,12.6276,10.0828,0.02394495,32.1078
22519,33796.6,-0.730472,3.12187,3.6226,3.35115,12.6297,10.097,0.0520141,32.02
22560,33837.9,2.75712e-06,3.24683,3.62499,3.35695,12.6379,10.1146,0.000123119,31.8712
22601,33879.1,0.0732569,3.25114,3.6252,3.36163,12.6386,10.1286,-0.002462244,31.9016
22643,33919.3,-2.03665,2.92859,3.62589,3.36311,12.6409,10.1331,-0.03564043,31.9016
22684,33960.6,-0.57476,3.14465,3.62735,3.37218,12.6458,10.1601,-0.00147734,31.9456
22725,34001.8,-0.632988,3.13449,3.62757,3.37928,12.6465,10.182,-0.02308321,31.8408
22766,34043.1,2.75712e-06,3.2456,3.63019,3.38121,12.6556,10.188,0.0,31.9591
22807,34084.2,-0.65271,3.13449,3.63159,3.38891,12.6604,10.2104,-0.0236988,32.0639
22848,34125.4,-0.720517,3.08094,3.63159,3.41599,12.6604,10.2853,0.0459201,31.9287
22889,34166.6,-1.07232,3.03662,3.63163,3.43037,12.6605,10.3277,-0.007325029,32.0031
22930,34207.9,0.964703,3.37456,3.63522,3.44031,12.6726,10.3558,-0.004001093,31.8983
22971,34249,-2.96266,2.75931,3.63804,3.44454,12.6821,10.3679,-0.009356404,31.9422
23012,34290.2,0.000190588,3.22775,3.64134,3.45397,12.6934,10.3958,-0.0184665,31.9422
23053,34331.3,0.000190588,3.22221,3.64345,3.46167,12.7006,10.4175,6.15597e-05,31.8239
23094,34372.5,-0.609321,3.10556,3.64346,3.47417,12.7006,10.453,-0.0112031,31.8239
23135,34413.8,-1.53026,2.97876,3.64663,3.47786,12.7114,10.4644,-0.027946,31.8239
23176,34454.9,0.000190588,3.2179,3.64797,3.48316,12.716,10.4805,0.000123119,31.9456
23217,34496.1,-0.725401,3.09387,3.64802,3.48897,12.7161,10.4981,-0.0105875,31.9016
23258,34537.2,0.000190588,3.21728,3.64966,3.49156,12.7217,10.5059,6.15597e-05,31.8273
23299,34578.39,2.75712e-06,3.21328,3.65125,3.4984,12.7271,10.5264,0.0,31.9016
23340,34619.5,2.75712e-06,3.2099,3.65242,3.50375,12.731,10.5426,-6.15597e-05,31.9016
23381,34660.7,0.000190588,3.20867,3.65417,3.51114,12.7368,10.5645,0.0,31.9456
23422,34701.856,-1.39333,2.96676,3.65423,3.52303,12.737,10.5995,0.0177894,32.02
23463,34743,-1.22785,3.00338,3.65576,3.52718,12.742,10.6123,-0.008309936,31.9152
23504,34784.3,-0.876981,3.05663,3.6564,3.53376,12.7441,10.6323,-0.02880783,31.9895
23545,34825.4,-0.0775715,3.17604,3.65692,3.53836,12.7458,10.6464,0.0138499,31.9287
23586,34866.6,-2.57272,2.77901,3.6585,3.54568,12.751,10.668,-0.0437042,32.0335
23627,34907.8,0.0732569,3.19759,3.6594,3.55052,12.754,10.6826,0.000307798,32.3748
23668,34948.9,-0.871909,3.06093,3.66047,3.55079,12.7575,10.6834,-0.0272074,32.5843
23709,34990.2,0.000190588,3.19266,3.66226,3.55792,12.7635,10.7043,0.001846647,32.5674
23750,35031.4,-0.389371,3.11633,3.66226,3.56597,12.7635,10.7285,0.00043087,32.5235
23791,35072.6,0.121342,3.18958,3.66381,3.57079,12.7686,10.7422,0.08482299,32.5539
23832,35113.7,0.0291166,3.18035,3.66506,3.57543,12.7728,10.7562,0.0203132,32.466
23873,35155,-0.345419,3.13326,3.6659,3.57705,12.7755,10.7612,0.003139305,32.3174
23914,35196.1,-2.63132,2.7587,3.66621,3.58676,12.7765,10.7898,0.002831555,32.1991
23955,35237.3,-1.44667,2.95321,3.6683,3.58892,12.7836,10.7962,0.00670948,32.2734
23997,35278.2,0.000190588,3.18712,3.66919,3.59174,12.7865,10.8044,0.000123119,32.2295
24038,35319.5,1.03289,3.33055,3.67012,3.59896,12.7896,10.8255,0.0343478,32.243
24079,35360.7,-0.316493,3.11018,3.67071,3.60743,12.7915,10.8507,0.00584774,32.1991
24120,35401.9,0.000190588,3.17943,3.6735,3.61132,12.801,10.8624,0.0,32.3917
24161,35443,0.180321,3.18066,3.67362,3.61722,12.8014,10.8789,0.0432117,32.3174
24202,35484.3,-2.35878,2.72207,3.6749,3.63657,12.8057,10.9309,-0.02991581,32.2126
24243,35525.4,-1.62286,2.76085,3.67494,3.6568,12.8058,10.9857,-0.0311469,32.2261
24284,35566.6,-1.12041,2.7864,3.67574,3.67013,12.8082,11.0211,-0.0281922,32.1214
24325,35607.9,0.000190588,3.03016,3.68135,3.67047,12.8259,11.022,-6.15597e-05,32.2261
24366,35649,-0.462625,2.84364,3.68135,3.68404,12.82591,11.0584,0.0194514,32.2701
24407,35690.2,1.74495,3.18251,3.68575,3.69177,12.8398,11.0778,0.0473975,32.1214
24448,35731.4,-1.43296,2.55649,3.68674,3.70215,12.8429,11.103,0.0283154,32.0335
24489,35772.5,0.000190588,2.82364,3.68991,3.70621,12.8523,11.1138,-0.000369358,32.0774
24530,35813.8,1.5883,2.96983,3.69041,3.7133,12.8538,11.1321,0.0500443,32.02
24571,35855,-0.111569,2.63774,3.69129,3.71684,12.8563,11.1409,0.0146501,32.02
24596,35879,-0.000185074,2.16562,3.69131,3.72165,12.8564,11.1522,0.0,31.9016