File: Battery Data/RAW/A123_03.csv
,Test_Time(s),Current(A),Voltage(V),Charge_Capacity(Ah),Discharge_Capacity(Ah),Charge_Energy(Wh),Discharge_Energy(Wh),dV/dt(V/s),Temperature (C)_1
1,8.01576,-1.09918,2.72915,0.0,0.00152901,0.0,0.004195896,-0.00295463,9.6909
64,318.512,1.09994,3.30654,0.0366912,0.0230313,0.115952,0.0581858,0.000738668,10.0865
103,513.672,1.10013,3.4595,0.0963242,0.0230313,0.318942,0.0581858,0.000123119,9.72926
142,708.878,1.09994,3.48443,0.155972,0.0230313,0.526033,0.0581858,6.15597e-05,9.86682
181,904.074,1.09994,3.51059,0.215616,0.0230313,0.734657,0.0581858,0.000123119,9.99374
220,1099.26,1.09994,3.52968,0.275255,0.0230313,0.944638,0.0581858,0.0,10.255
259,1294.44,1.10013,3.54076,0.334892,0.0230313,1.15551,0.0581858,6.15597e-05,10.255
298,1489.6,1.09975,3.54599,0.394525,0.0230313,1.36682,0.0581858,0.0,10.6743
337,1684.8,1.09994,3.55061,0.454169,0.0230313,1.57846,0.0581858,-6.15597e-05,10.9085
376,1880,1.10013,3.55676,0.513815,0.0230313,1.79041,0.0581858,6.15597e-05,11.1046
415,2075.18,1.10013,3.56384,0.573455,0.0230313,2.00273,0.0581858,6.15597e-05,11.2283
454,2270.42,1.10013,3.57246,0.633114,0.0230313,2.21558,0.0581858,6.15597e-05,11.2388
493,2465.61,1.10013,3.58231,0.692753,0.0230313,2.42892,0.0581858,0.0,11.3144
532,2660.81,1.10013,3.59523,0.752402,0.0230313,2.64297,0.0581858,6.15597e-05,11.3039
571,2852.42,1.03702,3.60047,0.809851,0.0230313,2.84975,0.0581858,6.1512e-05,11.2697
610,3047.61,0.894454,3.59985,0.862581,0.0230313,3.03959,0.0581858,-6.15597e-05,11.1631
649,3242.79,0.661732,3.60047,0.905106,0.0230313,3.19269,0.0581858,6.1512e-05,11.0322
688,3437.98,0.430324,3.60016,0.934378,0.0230313,3.29807,0.0581858,-6.1512e-05,10.9361
727,3633.17,0.282876,3.60016,0.95334,0.0230313,3.36634,0.0581858,-6.1512e-05,10.9638
766,3828.36,0.199292,3.60016,0.966196,0.0230313,3.41262,0.0581858,0.0,10.3649
805,4023.51,0.149328,3.60016,0.975532,0.0230313,3.44624,0.0581858,-6.1512e-05,10.303
844,4218.7,0.117773,3.60016,0.98272,0.0230313,3.47211,0.0581858,0.0,9.93188
883,4413.85,0.0967358,3.60016,0.988501,0.0230313,3.49293,0.0581858,-6.1512e-05,10.303
922,4609.04,0.0815214,3.60016,0.993313,0.0230313,3.51025,0.0581858,6.15597e-05,10.1411
961,4804.24,0.0700637,3.60016,0.997412,0.0230313,3.52501,0.0581858,0.0,10.0865
1000,4999.41,0.0612357,3.60016,1.00097,0.0230313,3.53781,0.0581858,0.0,9.96606
1063,5291.3,0.000190588,3.54445,1.00368,0.0230313,3.54758,0.0581858,-6.15597e-05,10.0312
1102,5330.49,-0.480657,3.37548,1.00368,0.0265303,3.54759,0.070112,-0.000984859,9.92455
1141,5369.68,-0.480845,3.35825,1.00475,0.0301613,3.55133,0.0820164,-0.0170508,9.90745
1180,5408.87,0.481226,3.47212,1.00536,0.0363903,3.55344,0.102452,0.001600409,10.0108
1219,5448.08,-0.480657,3.28592,1.00582,0.0411678,3.55504,0.11821,-0.000307751,9.85618
1258,5487.27,0.000190588,3.36471,1.00689,0.0454705,3.55872,0.13204,0.000123119,9.74954
1297,5526.46,-0.480657,3.26499,1.00689,0.0500302,3.55872,0.146965,-0.000246239,9.8871
1336,5565.65,0.962825,3.45612,1.00832,0.0748933,3.56364,0.216892,0.00166197,9.78047
1375,5604.82,1.9249,3.63555,1.01144,0.083442,3.57486,0.243689,0.001908207,9.74954
1414,5643.99,0.000190588,3.32993,1.01331,0.083442,3.58165,0.243689,0.000123119,9.78047
1454,5682.46,-0.480845,3.2456,1.01331,0.0857339,3.58166,0.251134,-0.000123119,9.84233
1493,5721.64,0.000378419,3.32747,1.01438,0.0903844,3.58529,0.265942,0.000123119,9.90419
1532,5760.84,-0.962068,3.15327,1.01438,0.0956012,3.58529,0.282688,-0.00036931,9.87326
1571,5800.01,-0.480657,3.23606,1.01545,0.100358,3.58893,0.29799,-0.000123119,9.81464
1610,5839.2,0.000190588,3.32008,1.01652,0.105872,3.59256,0.315554,-0.0158197,9.89035
1649,5878.37,-0.480657,3.23606,1.01652,0.109218,3.59256,0.326393,0.0,9.84557
1688,5917.57,-2.40574,2.85903,1.01652,0.132747,3.59256,0.392554,-0.00036931,9.95222
1727,5956.76,-0.962068,3.12341,1.01866,0.142584,3.5999,0.422617,0.0,10.076
1766,5995.95,0.000190588,3.31762,1.02293,0.1438,3.61538,0.426416,0.000184679,10.2892
1806,6034.41,-0.480657,3.23883,1.02293,0.144881,3.61539,0.429919,-0.000123119,10.2135
1845,6073.61,0.481226,3.39703,1.02391,0.15075,3.61869,0.448628,0.000677109,10.1826
1884,6112.76,-0.480845,3.23298,1.024,0.153746,3.619,0.458324,-0.000123119,10.2721
1923,6151.93,-0.480845,3.23021,1.02507,0.159516,3.62262,0.476701,-0.000123119,10.1655
1962,6191.1,0.481038,3.38164,1.02517,0.166245,3.62297,0.498153,0.0483823,10.1793
2001,6230.28,-0.480845,3.23113,1.02613,0.168377,3.62623,0.505048,-0.000123072,10.0727
2040,6269.47,-2.40593,2.85842,1.02613,0.187052,3.62623,0.557632,-0.00049243,10.1175
2079,6308.66,-0.962068,3.1148,1.02827,0.200538,3.63357,0.597391,0.0,10.0865
2118,6347.85,0.000190588,3.30808,1.03256,0.204187,3.64907,0.608757,0.000123119,10.1175
2158,6386.38,0.000190588,3.317,1.03256,0.204187,3.64908,0.608757,0.000184679,10.1175
2197,6425.56,-0.962068,3.13819,1.03256,0.210661,3.64908,0.629431,-0.000369358,10.1793
2236,6464.75,-0.480845,3.22867,1.03363,0.212927,3.65269,0.636709,-0.000184679,10.1175
2275,6503.94,-0.480657,3.22559,1.0347,0.218693,3.6563,0.655038,-0.000184679,10.0556
2314,6543.13,-0.962068,3.13603,1.0347,0.224436,3.6563,0.673462,-0.000553989,10.0247
2353,6582.33,-0.480657,3.22652,1.03576,0.227565,3.65991,0.683355,-0.000246239,9.96281
2392,6621.48,-2.40574,2.85811,1.03576,0.241435,3.65991,0.722513,0.0477668,9.8391
2431,6660.68,-0.962068,3.10433,1.0379,0.258537,3.6672,0.771852,-0.000184631,10.579
2470,6699.88,0.000378419,3.29546,1.04217,0.264589,3.68261,0.790641,0.000184679,10.4692
2510,6738.34,0.000190588,3.305,1.04218,0.264589,3.68262,0.790641,6.15597e-05,10.2699
2549,6777.52,-0.962068,3.1348,1.04218,0.268648,3.68262,0.803685,-0.0164352,10.3797
2588,6816.71,-0.480657,3.22036,1.04324,0.272124,3.68623,0.814617,-0.00036931,9.92867
2627,6855.88,0.481226,3.37856,1.04425,0.277953,3.68962,0.833089,0.000615549,9.90096
2666,6895.08,-0.480657,3.20867,1.04431,0.283126,3.68983,0.849704,-6.1512e-05,10.0727
2705,6934.28,0.000190588,3.29731,1.04538,0.287029,3.69344,0.861952,0.000123119,10.1207
2744,6973.45,-3.84922,2.6362,1.04538,0.29303,3.69344,0.880547,-0.114308,10.155
2783,7012.66,-0.96188,3.09971,1.04752,0.316504,3.70073,0.945559,-0.0631556,10.3406
2822,7051.87,1.92508,3.60447,1.05155,0.324966,3.71521,0.971735,0.001354218,10.4953
2861,7091.06,0.000378419,3.29054,1.05179,0.324966,3.71608,0.971735,0.000123119,10.5881
2901,7129.48,-0.480657,3.20467,1.05179,0.327656,3.71608,0.980365,-0.000123119,10.5434
2940,7168.68,0.000378419,3.28869,1.05286,0.331917,3.71967,0.993735,0.000184679,10.5296
2979,7207.87,-0.962068,3.1111,1.05286,0.337937,3.71967,1.01277,-0.00043087,10.1236
3018,7247.05,-0.480657,3.19636,1.05393,0.342297,3.72326,1.02668,0.0,10.1408
3057,7286.22,0.000190588,3.28161,1.055,0.347418,3.72684,1.04277,0.000123119,10.1098
3096,7325.41,-0.480845,3.19543,1.055,0.351167,3.72684,1.05477,-6.1512e-05,9.98937
3135,7364.6,-2.40574,2.81748,1.055,0.376306,3.72684,1.12436,-0.000369358,10.3093
3174,7403.8,-0.96188,3.08433,1.05714,0.384924,3.73413,1.15082,0.0,10.8838
3213,7443,0.000378419,3.27946,1.06142,0.385334,3.74948,1.15208,6.15597e-05,10.7738
3253,7481.44,-0.480845,3.19789,1.06142,0.386815,3.74948,1.15682,-0.000184679,10.4953
3292,7520.62,0.000190588,3.27792,1.06249,0.392276,3.75308,1.17399,-0.0160043,10.5539
3331,7559.8,-0.96188,3.10956,1.06249,0.39587,3.75308,1.18544,-0.0166199,10.4887
3370,7599,-0.480845,3.18958,1.06356,0.401453,3.75664,1.20302,-0.000123119,10.334
3409,7638.22,0.481414,3.34994,1.06407,0.40778,3.75837,1.22292,0.000984907,10.2412
3448,7677.38,-0.480845,3.1902,1.06463,0.41032,3.76023,1.23103,-6.15597e-05,10.1655
3487,7716.56,-2.40555,2.81687,1.06463,0.430639,3.76023,1.28732,-0.00043087,10.2135
3526,7755.74,-0.962068,3.07786,1.06676,0.4429,3.76747,1.32333,0.0,10.5229
3565,7794.95,0.000378419,3.27268,1.07103,0.445739,3.78277,1.33207,0.000246239,10.54
3605,7833.44,-0.480845,3.19697,1.07103,0.446017,3.78278,1.33295,-0.0164352,10.4815
3644,7872.58,0.481226,3.34501,1.0712,0.452686,3.78332,1.35396,0.0490594,10.6672
3683,7911.75,-0.480657,3.18928,1.0721,0.454874,3.78636,1.36094,-0.000184679,10.2302
3722,7950.97,-0.480657,3.18681,1.07317,0.460643,3.78994,1.37906,-0.000123119,10.1683
3761,7990.17,-0.96188,3.09694,1.07317,0.46679,3.78994,1.39848,-0.000184679,10.2165
3800,8029.35,-0.480657,3.18835,1.07424,0.469508,3.79352,1.40702,-0.000184631,10.0066
3839,8068.55,-2.40574,2.81872,1.07424,0.484982,3.79352,1.45001,-0.00043087,10.0823
3878,8107.76,-0.962068,3.07232,1.07638,0.50086,3.80077,1.4955,0.0,10.2646
3917,8146.94,0.000190588,3.26591,1.08066,0.506098,3.81609,1.51159,0.000123119,10.3093
3957,8185.39,0.000378419,3.27515,1.08066,0.506098,3.816095,1.51159,0.000184679,10.385
3996,8224.6,-0.962068,3.09971,1.08066,0.510966,3.8161,1.52702,-0.00049243,10.3541
4035,8263.81,-0.480845,3.18866,1.08173,0.514035,3.81967,1.53661,-0.000184631,10.6844
4074,8303,-0.480845,3.1862,1.0828,0.519807,3.82324,1.55472,-0.0328705,10.5263
4113,8342.22,-0.480845,3.17974,1.0828,0.525044,3.82324,1.57139,-6.15597e-05,10.3406
4152,8381.41,-0.480845,3.18866,1.08387,0.52868,3.82681,1.58267,-0.0163736,10.2135
4191,8420.6,-3.84922,2.58665,1.08387,0.537866,3.82681,1.60928,-0.002831507,10.1517
4230,8459.76,-0.96188,3.06863,1.08601,0.558845,3.83405,1.66747,-0.000615549,10.2721
4269,8498.93,0.000190588,3.26037,1.09028,0.566492,3.84932,1.69093,-0.0652484,10.2721
4309,8537.36,0.000190588,3.2693,1.09028,0.566492,3.84932,1.69093,0.0,10.2103
4348,8576.58,-0.480845,3.18312,1.090282,0.56959,3.84933,1.7008,-6.15597e-05,10.1964
4387,8615.78,0.000190588,3.26991,1.09135,0.573439,3.8529,1.71277,0.000184679,10.303
4426,8654.92,0.481226,3.33793,1.09155,0.579853,3.85357,1.7329,0.0493672,10.2274
4465,8694.13,-0.480845,3.17727,1.09241,0.584225,3.85645,1.7468,0.0,10.2274
4504,8733.34,0.000190588,3.26499,1.09348,0.588938,3.86002,1.7615,0.000123119,10.2721
4543,8772.53,-0.480657,3.17789,1.09348,0.593097,3.86002,1.77472,-6.15597e-05,10.1346
4582,8811.71,0.962637,3.37579,1.0941,0.61832,3.86211,1.84375,0.117386,10.1793
4621,8850.92,1.92508,3.55953,1.09644,0.626874,3.87014,1.86994,0.0996578,10.1484
4660,8890.13,0.000190588,3.26345,1.09989,0.626874,3.88247,1.86994,0.000184679,10.1793
4700,8928.52,-0.480845,3.18035,1.09989,0.628762,3.88248,1.87595,-0.000246239,10.1484
4739,8967.72,0.000190588,3.26376,1.10095,0.633827,3.88603,1.89177,0.000184631,10.1175
4778,9006.92,-0.962068,3.09048,1.10095,0.638245,3.88603,1.90571,-0.000553989,10.1175
4817,9046.14,-0.480469,3.1742,1.10202,0.643413,3.88959,1.92195,0.0,10.1484
4856,9085.34,0.481226,3.33916,1.10295,0.649323,3.89269,1.94042,0.000738668,10.1484
4895,9124.54,-0.480845,3.1745,1.10309,0.652279,3.89316,1.94981,-0.000123119,10.1484
4934,9163.75,-2.40574,2.7864,1.10309,0.674289,3.89316,2.01017,-0.000553989,10.1793
4973,9202.95,-0.962256,3.05416,1.10523,0.685286,3.90037,2.04257,-6.15597e-05,10.1793
5012,9242.14,2.75712e-06,3.25545,1.1095,0.687271,3.91561,2.04863,0.000184679,10.2103
5052,9280.47,-0.480657,3.17881,1.10951,0.68795,3.91561,2.05079,-0.000246191,10.303
5091,9319.65,0.481226,3.33393,1.11007,0.6942182,3.9175,2.0704,0.000984907,10.2583
5130,9358.86,-0.480657,3.17266,1.11057,0.696818,3.91917,2.07866,-6.15597e-05,10.0931
5169,9398.03,-0.480657,3.16958,1.11164,0.702582,3.92273,2.09666,-6.1512e-05,10.124
5208,9437.22,-0.962068,3.0754,1.11164,0.70913,3.92273,2.11717,-0.000307751,10.155
5247,9476.4,-0.480845,3.1705,1.11271,0.711451,3.92629,2.12447,0.0,10.155
5286,9515.62,-2.40593,2.78701,1.11271,0.728572,3.92629,2.17152,-0.000615549,10.1826
5325,9554.8,-0.962068,3.04616,1.11485,0.743223,3.93348,2.21334,-6.15597e-05,10.2103
5364,9594.01,0.000190588,3.24591,1.11913,0.747652,3.94871,2.22683,0.000184679,10.1484
5404,9632.42,0.000190588,3.25606,1.11913,0.747652,3.94871,2.22683,0.000184679,9.96281
5443,9671.61,-0.962068,3.0754,1.11913,0.753319,3.94871,2.24462,-0.000553989,10.0247
5482,9710.83,-0.480845,3.16681,1.1202,0.755988,3.95228,2.25296,-0.000246239,9.96281
5521,9750.05,-0.480845,3.16342,1.12127,0.76176,3.95583,2.27094,-0.000307798,9.93188
5560,9789.26,-0.962256,3.07417,1.12127,0.767111,3.95583,2.28783,-0.0166199,9.90096
5599,9828.49,-0.480657,3.16465,1.12234,0.770637,3.95937,2.2987,-0.000307798,9.90096
5638,9867.68,-3.84922,2.54049,1.12234,0.782675,3.95937,2.33207,-0.002277517,9.90096
5677,9906.88,-0.962068,3.03693,1.12448,0.801215,3.96654,2.38375,-0.000307751,10.2038
5716,9946.09,0.000378419,3.23421,1.12875,0.808036,3.98171,2.40446,-6.15597e-05,10.2795
5756,9984.4,2.75712e-06,3.24498,1.12875,0.808036,3.98172,2.40446,6.15597e-05,10.2176
5795,10023.6,-0.480657,3.15542,1.12875,0.811532,3.98172,2.4155,-6.15597e-05,9.91481
5834,10062.8,-0.480845,3.16127,1.12982,0.815167,3.98526,2.42669,-0.01655836,9.99051
5873,10102,0.481226,3.31577,1.13043,0.82139,3.98729,2.44604,0.001046419,9.8391
5912,10141.2,-0.480845,3.1465,1.13089,0.826169,3.98879,2.46109,-0.000123119,9.87003
5951,10180.4,0.000190588,3.23698,1.13196,0.830468,3.99234,2.47433,0.000246239,9.91481
5990,10219.6,-0.480845,3.14527,1.13196,0.835038,3.99234,2.48872,-0.000123119,9.8391
6029,10258.8,0.962825,3.35178,1.1334,0.859871,3.99715,2.55548,0.002092838,10.2933
6068,10298,1.92508,3.54045,1.13657,0.868417,4.00821,2.58132,0.00252376,10.7165
6107,10337.2,2.75712e-06,3.23206,1.13838,0.868417,4.01462,2.58132,0.000123119,10.5204
6147,10375.6,-0.480845,3.14557,1.13838,0.870704,4.01462,2.58853,-0.000123119,10.159
6186,10414.8,0.000378419,3.23021,1.13945,0.875362,4.01815,2.60288,0.000123119,10.0076
6225,10454,-0.962068,3.04893,1.13945,0.880583,4.01815,2.61911,-0.000553989,10.1175
6264,10493.2,-0.480657,3.1348,1.14052,0.885345,4.02168,2.63395,-6.15597e-05,10.1793
6303,10532.4,0.000190588,3.2219,1.14159,0.890856,4.02521,2.65093,-0.0161275,10.1964
6342,10571.6,-0.480657,3.13357,1.14159,0.894216,4.02521,2.66147,-0.000123119,10.303
6381,10610.8,-2.40593,2.73161,1.14159,0.917852,4.02521,2.72501,-0.000553989,10.2721
6420,10650,-0.962256,3.00553,1.14372,0.927632,4.03232,2.75376,-0.000123119,10.4821
6459,10689.2,0.000190588,3.21605,1.148,0.928822,4.04739,2.75734,0.000184631,10.5268
6499,10727.5,-0.480845,3.1348,1.148,0.929904,4.04739,2.76073,-0.000307798,10.3755
6538,10766.8,0.481226,3.29484,1.14898,0.935767,4.0506,2.778791,0.000861788,10.465
6577,10806,-0.480657,3.12464,1.14907,0.938776,4.0509,2.78821,-0.000184679,10.207
6616,10845.2,-0.480845,3.11972,1.15014,0.944539,4.05441,2.80592,-0.000123119,10.0385
6655,10884.3,0.481226,3.27115,1.15026,0.951257,4.0548,2.82657,0.0498597,10.159
6694,10923.5,-0.480657,3.1191,1.1512,0.953409,4.05791,2.83329,-0.000184679,10.0971
6733,10962.7,-2.40574,2.71807,1.1512,0.972167,4.05791,2.88357,-0.000677109,10.4308
6772,11002,-0.962068,2.98522,1.15333,0.985621,4.06495,2.92141,-6.1512e-05,10.7474
6811,11041.2,0.000378419,3.19543,1.15761,0.989221,4.07994,2.93216,0.000184679,10.7474
6851,11079.5,0.000378419,3.20528,1.15761,0.989221,4.07995,2.93216,0.000184679,10.7474
6890,11118.7,-0.962068,3.01138,1.15761,0.995707,4.07995,2.95209,-0.000554037,10.5651
6929,11157.9,-0.480657,3.10772,1.15868,0.997963,4.08345,2.95906,-0.000246191,10.7165
6968,11197.1,-0.480845,3.10218,1.15975,1.00373,4.08694,2.97666,-0.000246239,10.6408
7007,11236.3,-0.962068,3.00492,1.15975,1.00949,4.08694,2.99441,-0.000738668,10.7165
7046,11275.5,-0.480845,3.10095,1.16082,1.0126,4.09043,3.00384,-0.000307751,10.6099
7085,11314.7,-2.40593,2.69622,1.16082,1.02652,4.09043,3.04105,0.0493057,10.6408
7124,11353.9,-0.962068,2.95875,1.16296,1.04358,4.09743,3.08749,-0.000307751,10.8369
7163,11393.1,0.000190588,3.17204,1.16721,1.0496,4.11224,3.10528,0.0,10.8678
7203,11431.5,0.000190588,3.18312,1.16721,1.0496,4.11225,3.10528,0.000123072,10.7613
7242,11470.7,-0.962068,2.99815,1.16722,1.05366,4.11225,3.11781,-0.0171123,10.7165
7281,11509.9,-0.480657,3.08863,1.16829,1.05713,4.11573,3.12824,-0.000553989,10.7165
7320,11549.1,0.481226,3.25022,1.1693,1.06296,4.11902,3.14589,0.001108026,10.7165
7359,11588.3,-0.480845,3.06709,1.16935,1.06814,4.11918,3.16182,-0.000123119,10.6579
7398,11627.5,0.000190588,3.16558,1.17043,1.07204,4.12265,3.17345,0.000184679,10.3445
7437,11666.6,-3.84922,2.46416,1.17043,1.07814,4.12266,3.19143,-0.120094,10.1793
7476,11705.8,-0.96188,2.92551,1.17256,1.10156,4.12954,3.25137,-0.0635865,11.0737
7515,11745,1.92508,3.46351,1.17661,1.11001,4.14342,3.27586,0.003508663,11.1355
7554,11784.2,0.000190588,3.14311,1.17683,1.11001,4.1442,3.27586,0.000246239,10.7881
7594,11822.6,-0.480845,3.04616,1.17683,1.11269,4.1442,3.28406,-0.000307751,10.592
7633,11861.8,0.000378419,3.13357,1.1779,1.11695,4.14762,3.2967,0.000246239,10.3649
7672,11901,-0.962256,2.91874,1.1779,1.12297,4.14762,3.31469,-0.00116954,10.4268
7711,11940.2,-0.480845,3.00646,1.17897,1.12733,4.15102,3.32781,-0.000307798,10.4268
7750,11979.3,0.000190588,3.0914,1.18003,1.13245,4.15438,3.34284,0.000246239,10.4887
7789,12018.5,-0.480657,2.98338,1.18003,1.1362,4.15438,3.35408,-0.000369358,10.3959
7828,12057.7,-2.40574,2.34813,1.18003,1.16138,4.15438,3.41469,-0.003631782,10.9256
7867,12096.9,-0.962256,2.64451,1.18218,1.16998,4.16088,3.43763,-0.001354218,11.1355
7906,12136.1,0.000190588,2.95691,1.18647,1.17038,4.17481,3.43869,0.000307751,11.1046
7946,12174.5,-0.480845,2.85657,1.18647,1.17186,4.17481,3.44293,-0.000984907,11.0875
7985,12213.7,0.000190588,2.91597,1.18754,1.17732,4.178,3.45804,-0.0169892,11.0875
8024,12252.9,-0.962256,2.68883,1.18754,1.18092,4.178,3.4681,-0.0198207,10.8881
8063,12292.1,-0.480845,2.73254,1.18861,1.18649,4.18114,3.48318,-0.0009233,10.8125
8102,12331.3,0.481226,2.84057,1.18913,1.19282,4.18259,3.49985,0.005724621,10.902
8141,12370.6,-0.480845,2.63836,1.18968,1.19537,4.18416,3.50666,-0.001538849,10.7645
8181,12792.6,1.09994,3.3167,1.2218,1.19767,4.28712,3.51265,0.000738668,10.8231
8220,12987.8,1.09975,3.45673,1.28144,1.19767,4.49043,3.51265,6.15597e-05,10.1175
8259,13183,1.09994,3.48259,1.34107,1.19767,4.69733,3.51265,0.000123119,9.90096
8298,13378.2,1.09994,3.50782,1.40071,1.19767,4.90579,3.51265,0.0,9.93188
8337,13573.4,1.09994,3.52629,1.46036,1.19767,5.11562,3.51265,6.15597e-05,10.2624
8376,13768.6,1.09994,3.53583,1.52,1.19767,5.32625,3.51265,0.0,10.4585
8415,13963.8,1.09994,3.54045,1.57963,1.19767,5.53727,3.51265,0.0,10.1175
8454,14159,1.09994,3.54476,1.63927,1.19767,5.74855,3.51265,0.0,10.3649
8493,14354.2,1.09994,3.5503,1.69891,1.19767,5.96012,3.51265,6.15597e-05,10.9842
8532,14549.3,1.09975,3.55645,1.75855,1.19767,6.17201,3.51265,-6.15597e-05,11.1046
8571,14744.5,1.10013,3.56446,1.81819,1.19767,6.38436,3.51265,0.0,11.0875
8610,14939.8,1.09994,3.57338,1.87784,1.19767,6.59724,3.51265,0.0,10.9606
8649,15134.9,1.09994,3.58415,1.93748,1.19767,6.81064,3.51265,6.1512e-05,11.1119
8688,15330.1,1.09994,3.59862,1.99712,1.19767,7.02481,3.51265,0.0,11.1631
8727,15525.2,0.978415,3.60016,2.05394,1.19767,7.22937,3.51265,0.0,11.3691
8766,15720.4,0.727097,3.60016,2.10083,1.19767,7.39819,3.51265,-6.1512e-05,11.2421
8805,15915.6,0.432202,3.59985,2.13191,1.19767,7.51008,3.51265,-0.000123072,11.1013
8844,16110.8,0.255265,3.60016,2.15,1.19767,7.57522,3.51265,6.15597e-05,10.8402
8883,16306,0.166797,3.60016,2.16118,1.19767,7.61545,3.51265,0.0,10.7336
8922,16501.2,0.119088,3.59985,2.1688,1.19767,7.6429,3.51265,-6.15597e-05,10.6579
8961,16696.4,0.0912887,3.59985,2.17444,1.19767,7.66321,3.51265,-6.15597e-05,10.5822
9000,16891.6,0.0736325,3.60016,2.17888,1.19767,7.67919,3.51265,0.0,10.0076
9039,17086.8,0.0612357,3.60016,2.18252,1.19767,7.69229,3.51265,0.0,10.0865
9102,17347.3,-2.03853,3.17297,2.18459,1.19828,7.69975,3.51463,-0.0734353,9.90096
9141,17386.5,-1.28382,3.23729,2.18562,1.20333,7.70336,3.53087,-0.0456739,9.8391
9180,17425.7,-2.26712,2.96768,2.18572,1.21509,7.70372,3.56743,-0.007140398,9.8391
9219,17464.9,2.75712e-06,3.37671,2.1881,1.21828,7.71185,3.57703,-0.000246191,9.8391
9258,17504.1,-0.145379,3.30685,2.18819,1.22857,7.71216,3.60847,-0.0125573,9.80818
9297,17543.3,-0.685393,3.20651,2.18841,1.23535,7.71291,3.62981,0.0275767,9.8391
9336,17582.5,-0.757708,3.19451,2.1887,1.24138,7.71387,3.64901,-0.0244374,9.80818
9375,17621.7,-0.97747,3.15173,2.18873,1.24698,7.71397,3.66691,-0.0207441,9.80818
9414,17660.8,0.543774,3.39025,2.18904,1.25851,7.71501,3.70179,0.0870389,9.80818
9453,17700,-0.815372,3.17297,2.18989,1.26518,7.7179,3.72248,-0.0192667,9.80818
9492,17739.2,-0.731224,3.18035,2.18989,1.27313,7.7179,3.74752,0.002831507,9.80818
9531,17778.4,-0.048082,3.29854,2.19003,1.27875,7.71837,3.76529,0.0255454,9.80818
9570,17817.6,0.686901,3.43611,2.19135,1.28199,7.72286,3.77562,0.0176048,9.80818
9609,17856.8,-0.695536,3.19759,2.19259,1.28575,7.72705,3.78732,0.0216674,9.80818
9648,17896,0.000190588,3.31916,2.19386,1.29,7.73133,3.80048,-0.00443201,9.74632
9687,17935.2,0.000190588,3.31731,2.19523,1.2964,7.73597,3.8189,6.15597e-05,9.70154
9727,17973.4,0.382239,3.38102,2.19603,1.30163,7.73868,3.83493,-0.0059093,9.74632
9766,18012.6,0.0655558,3.313,2.19629,1.31,7.73956,3.86029,0.008740807,9.74632
9805,18051.8,0.354252,3.37086,2.1979,1.317,7.74495,3.88124,0.00289307,9.77725
9844,18091,-0.343352,3.23944,2.19872,1.32451,7.74775,3.90362,0.010095,9.8391
9883,18130.2,-1.41944,3.05847,2.19904,1.33143,7.74882,3.92509,0.00338554,9.8391
9922,18169.4,-0.586782,3.20005,2.19922,1.3381,7.74942,3.94616,-0.0214828,9.8391
9961,18208.6,-0.279678,3.25576,2.19935,1.34323,7.74985,3.96246,0.0219752,9.97666
10000,18247.8,-0.623972,3.18866,2.19953,1.35235,7.75046,3.99035,-0.0236987,9.87003
10039,18287.1,-0.81988,3.15788,2.20047,1.36169,7.75362,4.01863,-0.0275767,9.8391
10078,18326.2,-0.286627,3.24437,2.20051,1.36892,7.75376,4.0413,0.0177279,9.80818
10117,18365.4,0.008642986,3.29423,2.20064,1.37594,7.75419,4.06327,0.02431426,9.80818
10156,18404.6,-0.106873,3.2773,2.2009,1.38066,7.75509,4.07832,0.02394495,9.80818
10195,18443.8,-1.15704,3.11141,2.20283,1.38248,7.76159,4.08394,0.00338554,9.8391
10234,18483,0.003008054,3.31085,2.20402,1.38653,7.76561,4.09652,-0.00289307,9.8391
10273,18522.2,0.583782,3.39241,2.20493,1.39512,7.76868,4.12162,0.008063746,9.80818
10313,18561.4,0.0877199,3.30408,2.20587,1.40006,7.77182,4.13662,0.0568769,9.74632
10352,18600.6,-1.57534,3.01908,2.20687,1.40644,7.77522,4.15581,0.007140398,9.92867
10391,18639.8,0.197977,3.31639,2.20738,1.41572,7.77691,4.18365,-0.004431963,9.74632
10430,18679,-2.63546,2.84949,2.20935,1.41839,7.78353,4.19145,-0.0152657,9.86682
10469,18718.2,-0.290948,3.23914,2.20948,1.42697,7.78395,4.21761,-0.002154446,9.82203
10508,18757.4,-1.05899,3.1071,2.20981,1.43488,7.78506,4.24212,-0.00917172,9.98731
10547,18796.5,-0.191961,3.25145,2.20998,1.44031,7.78561,4.25929,0.006032371,9.8359
10586,18835.7,-3.02952,2.7667,2.20998,1.4479,7.78561,4.28291,-0.0656178,9.86682
10625,18874.9,-0.808422,3.12803,2.21036,1.4596,7.78689,4.31773,0.0024622,9.88388
10664,18914.1,-0.59035,3.17081,2.21113,1.46543,7.78949,4.33591,-0.0104644,9.90096
10703,18953.3,-1.0789,3.08925,2.21114,1.47316,7.7895,4.36,-0.0180357,10.1175
10742,18992.5,-0.457742,3.19882,2.21153,1.47741,7.79081,4.37336,0.008309985,10.1793
10781,19031.7,0.000378419,3.293,2.21345,1.47943,7.79727,4.37976,-0.003508663,10.1964
10820,19070.9,-0.912856,3.13388,2.21425,1.48359,7.79994,4.39258,-0.0310853,10.1207
10859,19110.1,-1.67977,2.99661,2.21511,1.48884,7.80279,4.40858,-0.0177895,10.2274
10899,19148.3,-0.393503,3.22252,2.21647,1.49387,7.80739,4.42263,-0.0124957,10.2412
10938,19187.5,-0.0114549,3.28376,2.2175,1.49908,7.81081,4.4384,-0.000307798,10.1793
10977,19226.7,-2.02256,2.9209,2.2176,1.51011,7.81116,4.47146,-0.01711235,10.0865
11016,19265.9,0.003571548,3.28376,2.21998,1.51444,7.81907,4.48414,-0.004062653,10.0418
11055,19305.1,0.250006,3.30469,2.22005,1.52466,7.81933,4.51453,0.0327474,10.1793
11094,19344.3,-1.51899,3.00492,2.2203,1.53125,7.82014,4.53484,-0.0326242,10.2103
11133,19383.5,-0.569877,3.16989,2.22057,1.53731,7.82105,4.5538,0.0162505,10.1793
11172,19422.7,-1.50565,3.01231,2.2206,1.54252,7.82115,4.57022,-0.0289309,10.2412
11211,19461.8,-1.84018,2.93567,2.22078,1.55446,7.82176,4.60579,-0.005355311,10.2412
11250,19501,-0.241736,3.22036,2.22177,1.56115,7.82503,4.62612,-0.0107106,10.2274
11289,19540.2,-0.826078,3.11695,2.22177,1.56886,7.82504,4.65006,-0.0034471,10.2583
11328,19579.4,-0.146881,3.23483,2.22191,1.57474,7.8255,4.66832,0.006586361,10.2135
11367,19618.6,0.485546,3.35455,2.2229,1.57821,7.82882,4.67925,0.002031279,10.2306
11406,19657.8,-1.60332,3.0003,2.22446,1.58129,7.83404,4.6887,-0.0343478,10.1859
11445,19697,0.140313,3.29608,2.2257,1.58623,7.83817,4.70376,-0.00707889,10.1688
11484,19736.1,2.75712e-06,3.27145,2.2271,1.59263,7.84284,4.72187,0.000123119,10.2274
11524,19774.5,0.567065,3.36471,2.2276,1.59788,7.84452,4.73766,0.0262225,10.1793
11563,19813.6,-0.508644,3.17112,2.22815,1.60609,7.84636,4.76214,-0.0188974,9.90096
11602,19852.8,0.395199,3.33178,2.22953,1.61323,7.8509,4.78322,0.003754854,9.8391
11641,19892,-0.640689,3.14403,2.2306,1.62035,7.85448,4.80401,0.007632828,9.99051
11680,19931.139,-1.54228,2.99292,2.23091,1.62698,7.85552,4.82432,-0.0102797,9.95959
11719,19970.2,0.0514685,3.26499,2.23109,1.6339,7.85613,4.84579,0.012311,9.80818
11758,20009.4,-0.104807,3.2376,2.23122,1.63938,7.85655,4.86294,0.012188,9.80818
11797,20048.5,-0.215064,3.21298,2.23141,1.64836,7.85716,4.88998,0.0263456,9.90096
11836,20087.6,0.0148414,3.25422,2.23234,1.65764,7.86026,4.91768,-0.0275152,10.0247
11875,20126.6,-0.807859,3.11233,2.23238,1.6649,7.86041,4.9401,-0.0169892,10.1793
11914,20165.7,-0.710187,3.12988,2.23246,1.67198,7.86065,4.96198,-0.0252376,10.1964
11953,20204.9,-0.833779,3.1148,2.23277,1.67643,7.86171,4.97597,-0.000615549,10.2274
11992,20244,-1.29941,3.05078,2.2347,1.67753,7.86814,4.9794,-0.0352711,10.0003
12031,20283.2,0.245122,3.309,2.23585,1.68277,7.87196,4.99539,-0.003631735,10.0174
12070,20322.3,0.0676219,3.26007,2.23638,1.69138,7.87374,5.02013,0.004247332,10.155
12110,20361.3,-1.62643,2.97968,2.23773,1.6954,7.87824,5.03216,-0.0150195,10.124
12149,20400.5,-1.80318,2.94059,2.23874,1.70136,7.88161,5.04986,0.005539942,10.0931
12188,20439.6,0.353689,3.301,2.23901,1.71196,7.8825,5.08126,0.0376102,10.1517
12227,20478.7,-1.66831,2.98461,2.24123,1.71244,7.88984,5.08274,-0.0568769,10.2721
12266,20517.9,-0.54452,3.15819,2.24135,1.72299,7.89025,5.11404,-0.008309936,10.1484
12305,20557,-0.0249788,3.24283,2.24168,1.73067,7.89136,5.13755,0.0309622,9.93188
12344,20596.2,-0.648578,3.14065,2.24185,1.73614,7.89189,5.15466,-0.008679247,9.8391
12383,20635.3,-0.570065,3.14619,2.24185,1.74299,7.89189,5.1759,0.009233284,9.91481
12422,20674.4,-1.29453,3.00984,2.24222,1.75518,7.89314,5.21167,-0.00043087,9.88388
12461,20713.6,-0.981039,3.07355,2.24301,1.7609,7.89573,5.2293,-0.001046467,9.8391
12500,20752.7,-0.53757,3.14742,2.24301,1.76854,7.89574,5.25288,-0.00664797,9.87003
12539,20791.9,-0.180315,3.21882,2.2434,1.77306,7.89704,5.26692,-0.009048605,9.93188
12578,20831,0.175437,3.29638,2.24526,1.77568,7.90326,5.27513,0.00535526,9.99374
12617,20870.1,0.035315,3.26899,2.24611,1.77954,7.90608,5.28688,-0.003816414,10.1036
12656,20909.3,-0.002439047,3.26284,2.24698,1.7837,7.90893,5.29949,6.15597e-05,10.0898
12696,20948.3,-0.001124229,3.2616,2.24834,1.7901,7.91348,5.31749,6.15597e-05,10.0312
12735,20987.4,0.000190588,3.2616,2.24936,1.79533,7.91688,5.33318,0.000123119,10.0621
12774,21026.5,-1.55355,2.9803,2.24947,1.80463,7.91722,5.36093,-0.03958,10.124
12813,21065.7,0.12491,3.28069,2.2518,1.81068,7.92495,5.37845,-0.009048605,10.0483
12852,21104.8,-0.694597,3.11387,2.25184,1.8206,7.92508,5.40761,-0.0012311,10.0312
12891,21143.9,-0.107624,3.21698,2.25216,1.82675,7.92612,5.42642,-0.0034471,10.1517
12930,21182.9,0.0227303,3.2416,2.25244,1.83315,7.92703,5.44621,-0.004247332,10.1346
12969,21222.1,-0.46394,3.16189,2.25247,1.83807,7.92714,5.4616,0.01218791,10.0865
13008,21261.2,-2.00378,2.88212,2.25265,1.84861,7.92773,5.49297,-0.02880783,9.97666
13047,21300.3,-0.46657,3.1508,2.25359,1.85724,7.93084,5.5186,0.0177279,9.80818
13086,21339.5,-0.412099,3.15481,2.25363,1.86451,7.93098,5.54095,0.005970859,9.80818
13125,21378.6,-0.159466,3.20436,2.25376,1.87063,7.9314,5.55978,0.0198208,9.87003
13164,21417.7,0.521234,3.33208,2.25447,1.87446,7.93377,5.57176,0.004493522,9.90096
13203,21456.8,-0.0895927,3.23791,2.25633,1.87649,7.93994,5.57789,-0.0162506,9.90096
13242,21495.9,0.425816,3.3127,2.25721,1.88249,7.94285,5.59605,0.0749742,9.96281
13281,21535,0.03888379,3.25114,2.25896,1.88888,7.94866,5.61394,-0.0100335,9.93188
13321,21573.4,0.0122118,3.2376,2.25919,1.89406,7.94941,5.62938,-0.002831507,9.96281
13360,21612.6,-0.045828,3.21359,2.25999,1.90222,7.95206,5.65343,0.0344093,9.96281
13399,21651.7,0.28081,3.28007,2.26106,1.90948,7.95556,5.67464,-0.000861788,10.0865
13438,21690.8,-0.884494,3.06801,2.26247,1.91561,7.96022,5.69215,0.0134806,10.1793
13477,21730,-1.17657,3.02431,2.26278,1.92189,7.96126,5.71125,-0.0563845,10.1793
13516,21769.1,-0.399326,3.15327,2.26295,1.92971,7.96181,5.73513,-0.016189,10.1207
13555,21808.2,-0.0101401,3.22375,2.26309,1.9349,7.96227,5.75124,0.0155119,10.076
13594,21847.3,-0.433136,3.13757,2.26325,1.94388,7.96278,5.77794,-0.00658641,10.2274
13633,21886.4,0.39426,3.28069,2.26382,1.95372,7.96465,5.80697,0.009294796,10.1964
13672,21925.5,-0.921309,3.05447,2.26425,1.9606,7.96609,5.82796,-0.00289311,10.2103
13711,21964.6,-1.03175,3.036,2.2643,1.9676,7.96624,5.84935,-0.0349633,10.1346
13750,22003.7,-0.833779,3.07448,2.26465,1.97217,7.96739,5.86351,-0.00043087,10.1793
13789,22042.9,2.75712e-06,3.23944,2.26657,1.97326,7.97374,5.86685,6.15597e-05,10.0865
13828,22082,0.0788918,3.2376,2.26738,1.97907,7.97641,5.8844,0.0320703,10.1175
13867,22121.2,-3.84546,2.54172,2.26823,1.98702,7.97918,5.90692,-0.0707884,10.1484
13907,22159.4,-1.96847,2.88643,2.26961,1.98979,7.98374,5.91496,0.002708435,10.2103
13946,22198.5,-2.04867,2.86704,2.27062,1.99488,7.98708,5.93012,-0.0395184,10.2721
13985,22237.6,-1.63206,2.90551,2.27073,2.00744,7.98742,5.96649,0.0270227,10.1826
14024,22276.8,0.000190588,3.2296,2.2731,2.00824,7.99521,5.96891,0.000123119,10.2583
14063,22315.9,-0.717136,3.08186,2.27323,2.01883,7.99561,5.99978,-0.00584774,10.2445
14102,22355.1,-0.894637,3.04308,2.27342,2.02616,7.99623,6.0219,-0.00726347,10.2274
14141,22394.2,0.0822728,3.21575,2.27372,2.03182,7.99722,6.03927,0.0228369,10.2583
14180,22433.341,-1.42113,2.95906,2.27373,2.03791,7.99726,6.05795,-0.0201285,10.334
14219,22472.5,-1.22578,2.96368,2.27411,2.04965,7.99847,6.09185,-0.0342247,10.303
14258,22511.7,-1.22635,2.98091,2.27489,2.05585,8.00104,6.11043,-0.0104028,10.2721
14297,22550.8,-0.84843,3.0357,2.27489,2.06388,8.00104,6.13474,-0.0260994,10.2412
14336,22590,0.804859,3.32993,2.27518,2.06895,8.00198,6.15014,0.0521372,10.1793
14375,22629.1,0.477094,3.29331,2.27673,2.07198,8.00708,6.15947,0.003939533,10.1484
14414,22668.2,0.367588,3.26622,2.27775,2.07583,8.0104,6.17101,0.013973,10.1175
14453,22707.3,0.000190588,3.20559,2.27887,2.08,8.01403,6.18338,0.000246191,10.1484
14493,22746.3,0.000190588,3.20374,2.28023,2.08641,8.0185,6.201,0.000184679,10.0865
14532,22785.4,0.000190588,3.20282,2.28126,2.09164,8.02185,6.21633,-0.009971952,10.1175
14571,22824.6,-0.243051,3.14003,2.28136,2.10011,8.02219,6.24092,-0.0144654,10.1793
14610,22863.7,0.698734,3.3127,2.28314,2.10701,8.02794,6.26057,0.0194514,10.2103
14649,22902.9,-0.880361,3.00954,2.28374,2.11553,8.02989,6.28489,-0.0195745,10.2721
14688,22942,-0.468824,3.08002,2.28405,2.1223,8.03091,6.30504,0.0150195,10.334
14727,22981.1,-0.795838,3.024,2.28423,2.12891,8.0315,6.32501,-0.00116954,10.413
14766,23020.3,-0.462437,3.08648,2.28436,2.13373,8.03191,6.33967,-0.003631782,10.5367
14805,23059.4,-0.832089,3.0083,2.284545,2.14293,8.0325,6.36645,-0.0142808,10.5196
14844,23098.6,-1.46207,2.89689,2.28547,2.15263,8.0355,6.39432,-0.0363175,10.4577
14883,23137.7,-1.00621,2.9723,2.28552,2.15961,8.03564,6.41516,0.007263517,10.334
14922,23176.9,-0.0670529,3.13419,2.28565,2.16629,8.03605,6.43508,-0.002831507,10.3478
14961,23216,0.307294,3.2059,2.28601,2.17073,8.03723,6.44858,0.0152041,10.2103
15000,23255.2,0.200231,3.19943,2.28791,2.17274,8.0434,6.45449,0.0194514,10.2859
15039,23294.3,-1.17394,2.95598,2.28902,2.17738,8.04697,6.4682,-0.0162505,10.1793
15078,23333.4,0.444975,3.23144,2.29047,2.18516,8.05164,6.48943,-0.001354218,10.2998
15118,23372.4,0.138998,3.16712,2.29102,2.19011,8.05341,6.50366,0.00424728,10.1932
15157,23411.6,-1.33585,2.87504,2.29188,2.19776,8.05617,6.52536,0.007140398,10.4202
15196,23450.7,0.301847,3.17727,2.29261,2.20576,8.0585,6.5479,0.005232191,10.6025
15235,23489.8,-1.75979,2.79502,2.29436,2.21045,8.0641,6.56058,0.0259763,10.6782
15274,23528.9,0.0394473,3.12865,2.29453,2.21711,8.06466,6.58011,0.012311,10.3755
15313,23568.1,-0.213749,3.05847,2.29481,2.22539,8.06555,6.60419,0.0284385,10.3926
15352,23607.2,-0.747565,2.96214,2.29498,2.23084,8.06607,6.62038,-0.0196361,10.303
15391,23646.3,-3.74723,2.37029,2.29498,2.23972,8.06607,6.64545,-0.03145466,10.303
15430,23685.5,0.152522,3.02954,2.29537,2.24995,8.06729,6.67369,0.0343478,10.3787
15469,23724.6,-1.01898,2.81379,2.29615,2.25611,8.06969,6.69124,-0.0160659,10.4544
15508,23763.8,-0.008825303,2.96152,2.29619,2.26354,8.06983,6.71218,0.0317009,10.8605
15547,23802.9,-0.457742,2.88581,2.29654,2.26778,8.0709,6.72426,0.012311,10.6164
15586,23842.1,0.000190588,3.01538,2.29846,2.26951,8.0768,6.72914,-6.15597e-05,10.8572
15625,23881.2,-1.62361,2.67468,2.29926,2.2745,8.07923,6.74293,-0.02997737,10.644
15664,23920.3,-3.55245,2.25826,2.30012,2.28048,8.08183,6.75863,-0.0762053,10.5065
15704,23959.4,-2.04022,2.5411,2.30149,2.28508,8.08592,6.76975,-0.06598711,10.5204
15743,23998.5,-0.936147,2.72084,2.30252,2.28986,8.08895,6.7823,-0.0381642,10.5961
15782,24037.6,-2.45326,2.20501,2.30262,2.30185,8.08925,6.81182,-0.0253607,10.7474
15821,24076.7,0.000190588,2.79563,2.30499,2.3045,8.0959,6.81787,-6.15597e-05,10.5961
15860,24115.9,0.00789166,2.52263,2.30509,2.31483,8.09614,6.84154,-0.008371544,10.6717
15900,24537.9,1.09994,3.29054,2.3374,2.31633,8.19813,6.84506,0.00086174,11.1046
15939,24732.9,1.09994,3.45335,2.397,2.31633,8.40044,6.84506,0.0,11.2526
15978,24928,1.09975,3.47889,2.4566,2.31633,8.60704,6.84506,0.0,11.1526
16017,25123,1.09994,3.50536,2.5162,2.31633,8.81519,6.84506,0.000123119,10.95
16056,25318.1,1.09994,3.52444,2.5758,2.31633,9.02473,6.84506,6.15597e-05,10.0214
16095,25513.2,1.09994,3.53491,2.6354,2.31633,9.23514,6.84506,6.15597e-05,10.159
16134,25708.2,1.09994,3.54014,2.69501,2.31633,9.44599,6.84506,6.15597e-05,10.303
16173,25903.3,1.10013,3.54445,2.75461,2.31633,9.65712,6.84506,6.15597e-05,10.3307
16212,26098.4,1.10013,3.54937,2.81422,2.31633,9.8685,6.84506,-6.15597e-05,10.4512
16251,26293.4,1.09994,3.55615,2.87382,2.31633,10.0802,6.84506,0.0,10.6815
16290,26488.5,1.09994,3.56353,2.93342,2.31633,10.2924,6.84506,0.0,10.8711
16329,26683.5,1.09994,3.57246,2.99301,2.31633,10.505,6.84506,0.000123119,10.8849
16368,26878.6,1.09994,3.58261,3.05262,2.31633,10.7182,6.84506,6.15597e-05,11.2111
16407,27073.7,1.09994,3.59585,3.11222,2.31633,10.9321,6.84506,0.0,11.2079
16446,27264.7,1.00866,3.60016,3.16883,2.31633,11.1359,6.84506,0.0,11.2388
16485,27459.8,0.784761,3.60016,3.21811,2.31633,11.3133,6.84506,0.0,11.0981
16524,27654.8,0.476906,3.60016,3.25215,2.31633,11.4358,6.84506,0.0,11.1258
16563,27849.9,0.275175,3.59985,3.27193,2.31633,11.5071,6.84506,-6.15597e-05,11.081
16602,28045,0.17431,3.60047,3.2838,2.31633,11.5498,6.84506,0.0,11.1046
16641,28240,0.121905,3.60016,3.29168,2.31633,11.5782,6.84506,0.0,11.0533
16680,28435.1,0.09203998,3.60016,3.2974,2.31633,11.5988,6.84506,-6.1512e-05,10.9361
16719,28630.2,0.0728812,3.59985,3.30183,2.31633,11.6147,6.84506,-6.15597e-05,10.4854
16758,28825.3,0.0601087,3.60016,3.30542,2.31633,11.6276,6.84506,0.0,10.303
16821,29063.3,0.000190588,3.54199,3.30702,2.31633,11.6334,6.84506,-0.000123072,10.3959
16860,29102.5,-2.09976,3.07355,3.30846,2.32417,11.6385,6.87,-0.0868543,10.303
16899,29141.6,0.073069,3.37517,3.30853,2.33253,11.6388,6.89668,0.01218791,10.2103
16938,29180.7,0.000190588,3.3841,3.31131,2.33591,11.6489,6.90747,6.15597e-05,10.1484
16977,29219.9,0.263342,3.38287,3.31136,2.34179,11.649,6.92488,0.0811297,9.93188
17016,29259,-0.988552,3.13049,3.31271,2.35964,11.6538,6.97543,0.000123119,9.93188
17055,29298.1,-0.209429,3.24591,3.31276,2.37981,11.6539,7.03417,0.0206825,9.93188
17094,29337.3,-0.311985,3.2336,3.31338,2.39308,11.656,7.07288,0.0305314,9.90096
17133,29376.4,0.000190588,3.32716,3.31916,2.39513,11.6761,7.07927,-0.0272074,9.87003
17172,29415.5,-0.867401,3.15419,3.31916,2.40589,11.6761,7.11115,0.006524849,9.8391
17211,29454.7,-3.84922,2.6636,3.32246,2.41228,11.6878,7.13035,-0.0557074,9.87003
17250,29493.8,-1.01335,3.15296,3.32456,2.41652,11.6952,7.14251,-0.0336091,9.87003
17289,29533,-0.599366,3.19882,3.32457,2.43032,11.6952,7.18293,-0.0171123,9.8391
17328,29572.1,-1.39333,3.0714,3.32774,2.43538,11.7064,7.19871,-0.0080637,9.90096
17367,29611.2,0.000190588,3.32039,3.32908,2.43786,11.7111,7.2066,6.15597e-05,9.96281
17406,29650.3,-0.311985,3.25668,3.32913,2.44411,11.7112,7.2262,0.0142808,10.0108
17445,29689.5,0.000190588,3.32224,3.33076,2.44626,11.717,7.23281,0.000123072,10.0727
17484,29728.6,0.000190588,3.31824,3.33234,2.45309,11.7225,7.25386,0.0,10.0898
17523,29767.8,0.000190588,3.31762,3.3335,2.45843,11.7265,7.27046,-0.0346555,9.98315
17562,29806.9,0.000190588,3.31454,3.33525,2.4658,11.7325,7.29293,-0.0214212,10.0141
17601,29846,-0.920557,3.14527,3.33531,2.47466,11.7327,7.31999,-0.01748166,9.93838
17640,29885.2,0.638628,3.4198,3.33667,2.47992,11.7374,7.33615,-0.008679295,10.0279
17679,29924.3,-0.687083,3.18004,3.33733,2.48781,11.7396,7.36089,0.002031326,9.84557
17718,29963.4,-0.277424,3.26684,3.33799,2.49069,11.7418,7.3701,-0.02394495,10.0727
17757,30002.6,0.000190588,3.317,3.33958,2.49483,11.7473,7.38325,-0.000246239,10.0108
17796,30041.7,-0.526488,3.21513,3.34026,2.50325,11.7496,7.40877,0.0120648,9.97989
17835,30080.9,0.000190588,3.31608,3.34154,2.50521,11.7541,7.41499,0.0,10.0247
17874,30120,-0.39463,3.23175,3.34162,2.51244,11.7543,7.43688,-0.0169892,10.0418
17913,30159.2,-1.26147,3.08556,3.34333,2.51653,11.7602,7.44941,0.020621,10.1793
17952,30198.3,0.000190588,3.31239,3.34486,2.52083,11.7655,7.46304,-0.000246239,9.95222
17991,30237.4,0.000190588,3.30993,3.3461,2.5255,11.7698,7.47671,0.000246191,10.1793
18030,30276.5,-0.667737,3.19328,3.34633,2.53084,11.7705,7.49341,-0.0393337,10.1175
18069,30315.7,-2.12455,2.95014,3.34697,2.53333,11.7727,7.50129,-0.0718348,10.0865
18108,30354.8,0.838481,3.44719,3.34925,2.54175,11.7807,7.52688,-0.0278845,10.3722
18147,30393.9,-1.07232,3.11387,3.34936,2.54569,11.7811,7.53886,-0.01261878,10.7336
18187,30432.3,0.000190588,3.31239,3.35026,2.54643,11.7842,7.54108,6.1512e-05,10.6717
18226,30471.5,0.706435,3.41919,3.35142,2.55364,11.7882,7.56293,0.03114686,10.4447
18265,30510.6,-0.31668,3.23298,3.35177,2.562,11.7893,7.58869,0.0197592,10.5961
18304,30549.7,0.000190588,3.305,3.35457,2.566,11.7993,7.60119,0.000123119,10.5961
18343,30588.8,-2.81652,2.81564,3.35457,2.56981,11.7993,7.61224,-0.0231447,10.5513
18382,30627.9,-0.60425,3.15173,3.35598,2.58865,11.8042,7.66459,0.001600409,10.2933
18421,30667,-1.29096,3.02,3.35598,2.60931,11.8042,7.72403,0.00874085,10.1728
18460,30706.2,0.764851,3.37702,3.35644,2.62235,11.8057,7.76161,0.0216058,10.0694
18499,30745.3,0.463006,3.36779,3.36198,2.62517,11.8247,7.77027,0.00332398,10.0556
18538,30784.4,-0.764845,3.12865,3.36244,2.63526,11.8263,7.79969,0.0251145,10.1793
18577,30823.5,-1.64183,3.00984,3.36575,2.63935,11.8379,7.81237,-0.0555227,10.2103
18616,30862.7,0.000190588,3.2853,3.36784,2.64645,11.8452,7.83237,0.000123119,10.2721
18655,30901.8,-0.789451,3.12926,3.36785,2.6598,11.8453,7.87087,-0.005970859,10.334
18694,30940.9,-1.34506,3.04647,3.37103,2.66395,11.8563,7.88376,0.0102182,10.2721
18733,30980.1,0.000378419,3.28315,3.37237,2.66794,11.861,7.89615,0.000123072,10.1655
18772,31019.2,-0.745311,3.14773,3.37242,2.67355,11.8611,7.91347,-0.0120033,10.1346
18811,31058.3,0.000190588,3.28438,3.37405,2.67634,11.8668,7.92205,0.000123119,10.1793
18850,31097.5,0.000190588,3.28069,3.37564,2.68318,11.8723,7.94285,-6.15597e-05,10.1793
18889,31136.6,0.438588,3.34563,3.3759,2.68852,11.8731,7.95928,0.0337322,10.1484
18928,31175.7,0.950052,3.43488,3.37807,2.6959,11.8806,7.98148,-0.00178509,10.1793
18967,31214.7,-0.40421,3.19605,3.37861,2.70412,11.8824,8.0062,-0.00486288,10.1484
19006,31253.9,0.25827,3.31331,3.37908,2.71001,11.884,8.02415,0.00677104,10.1484
19045,31293,-1.20813,3.06155,3.38064,2.71661,11.8892,8.04462,-0.020621,10.1793
19084,31332.1,0.0240451,3.27422,3.38085,2.72077,11.8899,8.05769,0.0259147,10.1207
19123,31371.2,1.01373,3.44996,3.38265,2.72495,11.8961,8.07078,0.00621705,10.1069
19162,31410.4,-1.03288,3.09571,3.38355,2.73266,11.8991,8.09378,-0.0392722,10.2445
19201,31449.5,0.000190588,3.27853,3.38484,2.73529,11.9035,8.10202,6.15597e-05,10.1688
19240,31488.7,-0.930325,3.10064,3.38484,2.74228,11.9035,8.12288,-0.006524849,10.2135
19279,31527.8,-0.526112,3.17912,3.38663,2.74477,11.9096,8.13053,0.0376718,10.303
19318,31566.9,0.618906,3.37948,3.3879,2.75089,11.9139,8.14943,-0.0135421,10.1655
19357,31606.1,2.75712e-06,3.27299,3.38941,2.75557,11.9191,8.16295,6.15597e-05,10.1793
19396,31645.2,-0.27254,3.22036,3.38944,2.76081,11.9192,8.17913,-0.00757127,10.4512
19435,31684.3,0.000190588,3.27268,3.39029,2.76263,11.9221,8.18487,0.0374871,10.7848
19474,31723.5,1.84225,3.56907,3.39085,2.77182,11.924,8.21253,0.0834688,10.6334
19513,31762.6,-0.920745,3.10895,3.39269,2.77415,11.9304,8.21955,0.0286231,10.5887
19553,31801.3,2.75712e-06,3.27699,3.39358,2.77651,11.9334,8.22658,0.0,10.4821
19592,31840.4,-0.0537169,3.24929,3.39428,2.78364,11.9358,8.2479,0.0699266,10.513
19631,31879.5,-0.876981,3.10525,3.3951,2.79141,11.9386,8.27154,0.0155734,10.4373
19670,31918.7,0.000190588,3.2733,3.3979,2.79604,11.9485,8.28589,0.0,10.4821
19709,31957.8,-1.7688,2.97414,3.39791,2.79694,11.9485,8.28863,-0.0609396,10.4959
19748,31996.9,-2.49458,2.79625,3.39931,2.81759,11.9533,8.34523,0.0109568,10.417
19787,32036.1,-1.54923,2.94798,3.39931,2.83765,11.9533,8.40235,-0.0147732,10.5374
19826,32075.2,-1.05279,3.03293,3.39941,2.85232,11.9536,8.44439,0.0507215,10.369
19865,32114.3,0.590356,3.38471,3.40485,2.85517,11.9722,8.45308,-0.004431963,10.4756
19904,32153.5,-1.26166,3.02585,3.40576,2.86352,11.9753,8.47708,0.05903139,10.369
19943,32192.6,0.000378419,3.26776,3.40906,2.86875,11.9868,8.49297,0.000123119,10.0353
19982,32231.7,0.000190588,3.26591,3.41117,2.87644,11.9941,8.51465,0.000246239,10.0662
20021,32270.8,-0.609321,3.1388,3.41119,2.88917,11.9942,8.55089,0.0,10.0662
20060,32310,-0.993811,3.09387,3.41435,2.89232,12.0051,8.56075,-0.0104644,10.0214
20099,32349.1,0.000190588,3.26622,3.41568,2.89796,12.0097,8.57803,0.000123119,9.96281
20138,32388.2,-1.20813,3.05293,3.41574,2.90286,12.0099,8.59305,-0.007448149,10.0865
20177,32427.4,0.000378419,3.26899,3.41738,2.90636,12.0156,8.60379,0.000123119,10.1175
20216,32466.5,0.740808,3.38995,3.41879,2.9132,12.0205,8.62448,-0.0177895,10.2103
20255,32505.6,-1.01316,3.08186,3.41898,2.9182,12.0211,8.63976,-0.0234525,10.1793
20294,32544.7,0.653279,3.36102,3.4203,2.92592,12.0256,8.66291,0.0265918,10.1793
20333,32583.8,0.200043,3.28007,3.4219,2.93381,12.031,8.68641,0.0214211,10.1175
20372,32622.9,-0.131479,3.22806,3.42223,2.94004,12.0321,8.70533,0.00547843,10.0865
20411,32662,-0.720517,3.13203,3.42395,2.94567,12.0379,8.7227,-0.029054,9.93188
20450,32701.1,0.01991285,3.25945,3.42415,2.95042,12.0386,8.7375,0.0144039,9.96281
20489,32740.2,0.472961,3.33609,3.42481,2.95496,12.0408,8.75166,0.0504137,9.90096
20528,32779.3,0.560678,3.34747,3.42654,2.96238,12.0466,8.77362,0.0188974,9.90096
20567,32818.4,0.000190588,3.26499,3.42816,2.96529,12.0521,8.78269,0.000123119,9.90096
20606,32857.6,-1.50546,2.98768,3.42816,2.97105,12.0521,8.79971,-0.001846647,9.96281
20645,32896.7,-1.45644,3.01661,3.42995,2.97317,12.0582,8.80626,-0.0438272,9.93188
20684,32935.8,0.97447,3.42011,3.43038,2.98088,12.0597,8.82982,0.0295465,10.1175
20723,32975,0.691597,3.3761,3.43266,2.98554,12.0674,8.84323,-0.0188974,10.1793
20762,33014.1,-0.49681,3.16435,3.43275,2.99062,12.0677,8.85879,0.003877974,10.2721
20801,33053.2,-0.438019,3.18743,3.43359,2.99191,12.0706,8.86291,-0.00332398,10.2103
20840,33092.3,-2.63095,2.81564,3.4339,3.00081,12.0716,8.8897,-0.040134,10.4064
20879,33131.5,-1.71546,2.97106,3.43598,3.00228,12.0789,8.89403,-0.058662,10.3307
20919,33170.3,0.000190588,3.26345,3.43688,3.00646,12.0818,8.90646,0.000184679,10.3445
20958,33209.4,-1.93917,2.92521,3.43757,3.01184,12.0842,8.92253,-0.0508446,10.4031
20997,33248.6,-1.7981,2.93413,3.4384,3.02004,12.087,8.94719,-0.0317009,10.5236
21036,33287.7,0.000190588,3.25883,3.44119,3.02603,12.0968,8.965564,-0.0405033,10.5854
21075,33326.8,0.000190588,3.26468,3.44119,3.02603,12.0968,8.96556,0.000123119,10.2518
21114,33365.9,-3.68825,2.57342,3.44259,3.04418,12.1016,9.01537,-0.0275767,10.1004
21153,33405,-1.81726,2.87227,3.44259,3.06605,12.1016,9.07632,0.007509708,10.1484
21192,33444.2,-2.74327,2.7153,3.44269,3.08036,12.1019,9.11703,-0.00627861,10.1793
21231,33483.3,0.135992,3.26037,3.44685,3.08526,12.1159,9.13148,-0.0108337,10.303
21270,33522.4,-2.27989,2.83534,3.44905,3.09125,12.1234,9.1486,-0.0227139,10.303
21309,33561.5,0.000190588,3.24498,3.45236,3.09884,12.1349,9.17102,-0.000307798,10.2412
21348,33600.7,0.000190588,3.2416,3.45445,3.10652,12.1421,9.19247,0.000246191,10.1793
21387,33639.8,-0.243802,3.17143,3.45447,3.11861,12.1422,9.22636,-0.009725714,10.1484
21426,33678.9,-0.35049,3.18066,3.45763,3.1215,12.153,9.23533,0.01175704,10.0727
21465,33718,0.000190588,3.24037,3.45897,3.12803,12.1576,9.25522,6.15597e-05,10.0247
21504,33757.2,-0.60425,3.13326,3.45902,3.13187,12.1578,9.26683,-0.0139114,9.97989
21543,33796.3,0.000378419,3.24221,3.46065,3.13643,12.16345,9.28071,0.000123119,10.0247
21582,33835.473,1.08172,3.41241,3.46104,3.14326,12.1648,9.3012,0.0337322,10.0247
21621,33874.6,-1.35877,2.99169,3.46223,3.14755,12.1688,9.31417,-0.008125258,10.0865
21660,33913.7,-0.267844,3.16896,3.46339,3.15591,12.1727,9.33899,0.0193283,10.1484
21699,33952.9,-0.11664,3.19266,3.46515,3.16354,12.1787,9.36141,0.00664792,10.1036
21738,33992,-0.467509,3.13788,3.4655,3.16982,12.1798,9.38029,-0.000307798,10.1517
21777,34031.1,0.5943,3.32285,3.46709,3.17539,12.1851,9.39729,0.0142192,10.0312
21816,34070.3,-0.0971059,3.20528,3.46743,3.18029,12.1862,9.4124,0.0104028,10.1207
21855,34109.4,-1.10576,3.03416,3.46795,3.18447,12.1879,9.42534,-0.0254223,10.2721
21894,34148.5,0.126413,3.23544,3.46962,3.19244,12.1935,9.4487,0.004308844,10.2103
21933,34187.7,0.000378419,3.23175,3.47144,3.1954,12.1997,9.45782,-0.000184679,10.1793
21972,34226.8,-1.57853,2.93936,3.47144,3.19972,12.1997,9.47033,-0.004616642,10.1793
22011,34266,-0.0437619,3.22467,3.47323,3.20281,12.2057,9.47965,-0.00141573,10.1484
22050,34305.1,0.0732569,3.22498,3.47325,3.21101,12.2058,9.50441,0.0024622,10.0865
22089,34344.2,0.121529,3.22867,3.47483,3.21567,12.211,9.51764,0.0367484,10.0556
22128,34383.4,0.0289287,3.21482,3.47603,3.22031,12.2151,9.53165,0.02252922,10.2518
22167,34422.5,-0.457742,3.14927,3.47688,3.22165,12.2179,9.53583,-0.0139114,10.8881
22206,34461.6,-0.623221,3.09725,3.47695,3.2297,12.2182,9.55998,-0.000738668,10.7059
22245,34500.8,0.000190588,3.22713,3.47927,3.23193,12.2262,9.56631,0.000123119,10.4959
22285,34539.3,0.000190588,3.22406,3.48017,3.23662,12.2291,9.5801,6.15597e-05,10.4927
22324,34578.4,-0.442903,3.1428,3.48086,3.24122,12.2314,9.59356,-0.051891,10.8711
22363,34617.5,0.01991285,3.20343,3.48168,3.24912,12.2341,9.61701,0.0296696,10.6717
22402,34656.7,1.50059,3.47089,3.48362,3.25618,12.2409,9.63831,-0.016189,10.7474
22441,34695.7,2.75712e-06,3.22436,3.48448,3.25618,12.2439,9.63831,6.15597e-05,10.6856
22480,34734.9,-2.43654,2.74393,3.48589,3.27047,12.2486,9.67734,0.0457355,10.5342
22519,34774,-1.99251,2.78609,3.48589,3.29372,12.2486,9.74013,0.00646329,10.4724
22558,34813.1,-3.84922,2.47585,3.48598,3.30746,12.2489,9.77884,-0.002277517,10.6856
22597,34852.3,0.828526,3.32962,3.48982,3.31529,12.2617,9.8006,-0.017297,10.5342
22636,34891.4,-2.96228,2.67129,3.49235,3.31895,12.2701,9.81092,-0.0231447,10.3381
22675,34930.5,0.599372,3.29885,3.49553,3.32898,12.281,9.83964,-0.0228369,10.7165
22714,34969.7,0.000190588,3.1862,3.49776,3.33668,12.2886,9.86065,0.000184631,10.7165
22753,35008.8,-0.632988,3.03416,3.49776,3.3484,12.2886,9.89259,-0.01224947,10.5961
22792,35047.9,0.000190588,3.18897,3.50094,3.35109,12.2993,9.90078,6.15597e-05,10.3381
22831,35087.1,0.000190588,3.18312,3.50228,3.35818,12.3039,9.92195,-0.0422884,10.1281
22870,35126.2,0.0633018,3.18343,3.50233,3.36171,12.304,9.93237,0.01317277,10.0833
22909,35165.4,0.000190588,3.18035,3.50397,3.36658,12.3096,9.9469,0.000184631,10.0865
22948,35204.5,-0.404398,3.08032,3.50397,3.37331,12.3096,9.96658,0.0,10.1175
22987,35243.6,-1.62305,2.88612,3.50556,3.3762,12.3149,9.97518,-0.0377333,10.1622
23026,35282.8,-0.930512,2.9723,3.50672,3.38554,12.3187,10.0022,0.00775595,10.0556
23065,35321.9,-0.442903,3.04832,3.50848,3.39341,12.3245,10.0247,0.0130497,10.0694
23104,35361,0.205114,3.18035,3.50881,3.39952,12.3256,10.0426,0.0197592,10.1142
23143,35400,-0.287379,3.08463,3.51006,3.40551,12.3297,10.0604,0.01132617,10.0833
23182,35439.1,0.0201007,3.14988,3.51076,3.41012,12.3319,10.0742,0.000984907,10.0971
23221,35478.2,-0.370024,3.07879,3.51123,3.41424,12.3334,10.0867,0.005970859,10.2795
23260,35517.4,-0.106685,3.10341,3.51291,3.42257,12.339,10.1104,0.0136652,10.2795
23299,35556.5,0.799224,3.29638,3.5146,3.42551,12.3445,10.1192,0.0152041,10.0076
23338,35595.6,-2.66964,2.67468,3.51478,3.42769,12.3451,10.1254,-0.0431502,10.0556
23377,35634.8,0.000190588,3.15419,3.51656,3.43291,12.351,10.1404,0.000246191,10.1175
23416,35673.9,-0.243802,3.06894,3.51656,3.44091,12.351,10.1637,0.0059093,10.1484
23455,35713,-2.63546,2.6399,3.5181,3.44468,12.356,10.1741,-0.009233284,10.2412
23494,35752.2,-1.49588,2.8381,3.51934,3.44989,12.3601,10.1891,0.00043087,10.998
23533,35791.3,-0.0486455,3.12649,3.5202,3.45162,12.3629,10.1943,-0.001846647,11.1184
23572,35830.4,-0.86233,2.93505,3.52027,3.459,12.3631,10.2155,-0.002031326,11.0566
23611,35869.6,0.000190588,3.12003,3.52261,3.46201,12.3708,10.2239,0.000123119,11.0566
23650,35908.7,0.000190588,3.10802,3.52351,3.46672,12.3737,10.2371,0.000246239,11.1151
23690,35947.4,0.160786,3.1031,3.52366,3.47125,12.3742,10.2497,0.001600409,11.0842
23729,35986.5,-0.511649,2.95783,3.52502,3.47844,12.3785,10.2699,0.002708435,11.129
23768,36025.6,0.135992,3.01692,3.52521,3.4863,12.3791,10.2922,0.044689,11.0842
23807,36064.7,0.000190588,3.0634,3.52781,3.4863,12.3877,10.2922,0.000184631,10.8881
23846,36103.8,-3.84922,2.26687,3.52922,3.49648,12.3922,10.3186,-0.0930714,10.9809
23879,36135.4,-0.000748567,2.64267,3.52922,3.51679,12.3922,10.3654,0.0,10.8743