File: Battery Data/RAW/A123_10.csv
,Test_Time(s),Current(A),Voltage(V),Charge_Capacity(Ah),Discharge_Capacity(Ah),Charge_Energy(Wh),Discharge_Energy(Wh),dV/dt(V/s),Temperature (C)_1
1,8.01394,-1.0996,2.51064,0.0,0.001529298,0.0,0.003876435,-0.004985857,26.6308
66,330.364,1.09942,3.39333,0.05502066,0.008314671,0.177912,0.0198602,0.00049243,26.5386
107,535.553,1.09978,3.48689,0.117694,0.008314671,0.394769,0.0198602,6.1512e-05,26.4331
148,740.727,1.09942,3.51274,0.18036,0.008314671,0.614033,0.0198602,0.0,26.474
189,945.908,1.0996,3.53982,0.243025,0.008314671,0.835081,0.0198602,0.0,26.5794
230,1151.14,1.09942,3.55891,0.305706,0.008314671,1.0576,0.0198602,6.15597e-05,27.2385
271,1356.36,1.09942,3.56814,0.368385,0.008314671,1.281,0.0198602,6.15597e-05,26.96
312,1561.57,1.0996,3.57245,0.431059,0.008314671,1.50476,0.0198602,6.15597e-05,27.2998
353,1766.75,1.09942,3.5746,0.493667,0.008314671,1.72849,0.0198602,0.0,27.3882
394,1971.95,1.09978,3.57922,0.556407,0.008314671,1.9529,0.0198602,0.0,27.6293
435,2177.16,1.0996,3.5863,0.619085,0.008314671,2.17745,0.0198602,6.15597e-05,27.6871
476,2382.36,1.09978,3.59645,0.681762,0.008314671,2.40253,0.0198602,6.15597e-05,27.5616
517,2585.63,1.06874,3.60107,0.743318,0.008314671,2.62414,0.0198602,-6.15597e-05,27.5311
558,2790.84,1.02543,3.60138,0.80298,0.008314671,2.839,0.0198602,6.15597e-05,27.3816
599,2996.04,0.973639,3.60107,0.860069,0.008314671,3.04458,0.0198602,0.0,27.5311
640,3201.24,0.879081,3.60138,0.913189,0.008314671,3.23587,0.0198602,0.0,27.5174
681,3406.46,0.690868,3.60138,0.958464,0.008314671,3.39891,0.0198602,6.15597e-05,27.4427
722,3611.67,0.450684,3.60076,0.990876,0.008314671,3.51563,0.0198602,-0.000123072,27.4732
763,3816.87,0.283403,3.60107,1.01136,0.008314671,3.58941,0.0198602,6.1512e-05,27.2829
804,4022.03,0.191913,3.60107,1.02466,0.008314671,3.63727,0.0198602,0.0,27.0687
845,4227.2,0.13904,3.60138,1.03396,0.008314671,3.67077,0.0198602,6.15597e-05,27.0992
886,4432.41,0.106377,3.60107,1.04089,0.008314671,3.695724,0.0198602,0.0,26.9294
927,4637.59,0.0845426,3.60107,1.04629,0.008314671,3.71518,0.0198602,6.1512e-05,26.9464
968,4842.78,0.0693844,3.60107,1.05065,0.008314671,3.73089,0.0198602,-6.15597e-05,26.7935
1009,5047.96,0.0581963,3.60107,1.05427,0.008314671,3.7439,0.0198602,0.0,26.6881
1074,5255.98,-0.481361,3.41764,1.05522,0.009667693,3.74735,0.0245063,-0.001538849,27.0551
1115,5297.22,-0.000451223,3.4635,1.05629,0.0152693,3.75114,0.0431077,-6.15597e-05,27.0856
1156,5338.43,-0.96209,3.2259,1.05629,0.0196942,3.75114,0.0577842,-0.0012311,27.1468
1197,5379.63,-0.4811804,3.30223,1.05736,0.0251272,3.75489,0.0755916,-0.000307798,27.072
1238,5420.85,-0.000270769,3.38563,1.05843,0.0307724,3.7586,0.09384859,0.0,27.0415
1279,5462.07,-0.481541,3.27545,1.05843,0.0345434,3.7586,0.106228,-0.000246239,27.0415
1320,5503.25,0.962631,3.50012,1.05879,0.0601926,3.75987,0.177246,0.134496,27.0245
1361,5544.46,1.92481,3.71433,1.06193,0.0687467,3.77116,0.204049,0.11646,26.9769
1402,5585.65,-0.000451223,3.34808,1.06483,0.0687504,3.78194,0.204061,6.15597e-05,27.0042
1444,5626.01,-0.481361,3.24713,1.06483,0.0713086,3.78194,0.212376,-0.000123119,26.943
1485,5667.2,-0.000270769,3.34408,1.0659,0.0757012,3.78561,0.226313,6.15597e-05,26.9872
1526,5708.43,0.480819,3.4278,1.0661,0.08211507,3.78632,0.246803,0.05743,26.9125
1567,5749.62,-0.481541,3.23882,1.06697,0.0867585,3.78928,0.261852,-0.000123119,26.9125
1608,5790.81,-0.000451223,3.33885,1.06803,0.0912068,3.79293,0.275941,0.000123072,26.8683
1649,5832.01,-3.84935,2.56511,1.06803,0.0972313,3.79293,0.29465,-0.134434,26.8241
1690,5873.24,-0.96227,3.12372,1.07017,0.12125,3.80039,0.360684,-0.0757732,26.8852
1731,5914.44,-0.000451223,3.33393,1.07445,0.129174,3.81625,0.38543,-0.000246239,27.0381
1773,5954.88,-0.000270769,3.337,1.07445,0.129178,3.81625,0.385444,6.15597e-05,27.0992
1814,5996.07,-0.962451,3.14095,1.07445,0.13297,3.81625,0.397721,-0.0190202,27.0992
1855,6037.24,-0.481361,3.23821,1.07552,0.136842,3.8199,0.409941,-0.000184679,27.1298
1896,6078.43,-0.481541,3.23575,1.07659,0.14288,3.82356,0.429157,-0.0380404,27.0551
1937,6119.62,-0.481541,3.23113,1.07659,0.148388,3.82356,0.446965,0.0,27.1162
1978,6160.83,-0.481361,3.23636,1.07765,0.152285,3.82722,0.459246,-0.000123119,26.9803
2019,6202,-2.40554,2.82487,1.07765,0.166406,3.82722,0.498492,0.0568145,26.9939
2060,6243.19,-0.96227,3.11787,1.07979,0.184056,3.83466,0.549138,0.0,26.9022
2101,6284.4,-0.000451223,3.32962,1.08408,0.18959,3.8505,0.566391,6.15597e-05,27.0211
2143,6324.94,-0.000451223,3.33331,1.08408,0.189594,3.8505,0.566406,6.1512e-05,27.0042
2184,6366.16,-0.96227,3.1311,1.08408,0.195813,3.8505,0.586273,-0.000307751,27.062
2225,6407.35,-0.481361,3.23205,1.08514,0.198479,3.85416,0.59482,-0.000123072,27.062
2266,6448.55,-0.481361,3.2299,1.08621,0.204519,3.85781,0.614021,-6.15597e-05,26.9125
2307,6489.75,-0.96227,3.12803,1.08621,0.211209,3.85781,0.635386,-0.000184679,26.8988
2348,6530.9,-0.481541,3.23051,1.08728,0.213929,3.86146,0.644091,-6.15597e-05,26.9905
2389,6572.08,-2.40572,2.81318,1.08728,0.232911,3.86146,0.696466,-0.00036931,26.9464
2430,6613.29,-0.96227,3.11233,1.08942,0.24692,3.8689,0.737473,0.000123119,26.9158
2471,6654.49,-0.000451223,3.32623,1.09369,0.250027,3.88468,0.747144,0.000123119,27.0381
2513,6694.98,-0.481541,3.23328,1.09369,0.250708,3.88468,0.749346,-0.000246239,27.0992
2554,6736.17,0.481,3.41733,1.09453,0.256982,3.88753,0.769291,0.000615549,27.0687
2595,6777.37,-0.481361,3.22744,1.09476,0.26012,3.88833,0.779426,-6.15597e-05,27.1298
2636,6818.61,-0.481361,3.22559,1.09583,0.266167,3.89197,0.798625,-6.15597e-05,27.0551
2677,6859.82,0.481,3.41395,1.09662,0.272487,3.89466,0.818685,0.000738668,26.9497
2718,6900.99,-0.4811804,3.22559,1.0969,0.275573,3.89562,0.828647,0.0,26.9328
2759,6942.2,-2.40572,2.8021,1.0969,0.299416,3.89562,0.894074,-0.000307751,26.8852
2800,6983.4,-0.962451,3.10494,1.09903,0.309784,3.90302,0.925515,0.0,26.8683
2841,7024.59,-0.000270769,3.321,1.10332,0.310456,3.9188,0.9276,0.000123119,27.062
2883,7065.07,-0.481361,3.22467,1.10332,0.312351,3.9188,0.933716,-0.000123119,26.9566
2924,7106.25,-0.000270769,3.31977,1.10438,0.317416,3.92244,0.949722,0.000123119,27.0178
2965,7147.47,-0.96227,3.12095,1.10438,0.322912,3.92244,0.967212,-0.000307751,26.943
3006,7188.63,-0.481541,3.21728,1.10545,0.327812,3.92606,0.982896,-0.000123119,26.8852
3047,7229.87,-0.000270769,3.31577,1.10652,0.332932,3.9297,0.99905,0.000246191,26.9158
3088,7271.08,-0.481541,3.21605,1.10652,0.337233,3.9297,1.0129,-6.15597e-05,27.0381
3129,7312.28,0.962812,3.46811,1.10794,0.36234,3.93463,1.08116,0.0015389,27.0245
3170,7353.49,1.92481,3.67863,1.11216,0.370885,3.94997,1.10761,0.00129261,27.0551
3211,7394.71,-0.000451223,3.30869,1.11294,0.370889,3.95284,1.10763,0.0,27.1162
3253,7435.09,-0.481361,3.20989,1.11294,0.373986,3.95284,1.11758,-6.15597e-05,27.1468
3294,7476.28,-0.481361,3.21389,1.11401,0.377887,3.95646,1.12978,-0.0187125,27.0279
3335,7517.48,0.481,3.39425,1.11475,0.384252,3.95898,1.14989,0.000615501,27.0415
3376,7558.68,-0.481541,3.20158,1.11508,0.389433,3.96009,1.16649,-6.15597e-05,27.0109
3417,7599.91,-0.000451223,3.30192,1.11615,0.393347,3.96371,1.17871,6.15597e-05,26.9191
3458,7641.09,-3.84935,2.52018,1.11615,0.403677,3.96371,1.20808,-0.00178509,26.8546
3499,7682.28,-0.96227,3.08709,1.11828,0.424459,3.97107,1.26574,-6.15597e-05,26.7935
3540,7723.46,-0.000451223,3.29545,1.12254,0.431315,3.9867,1.2869,0.0,26.9872
3582,7763.95,-0.000270769,3.29853,1.12254,0.431319,3.9867,1.28691,0.0,26.9566
3623,7805.12,-0.96227,3.10002,1.12254,0.436185,3.9867,1.30238,-0.000369358,26.9261
3664,7846.31,-0.481361,3.1982,1.12362,0.439521,3.99033,1.31284,-0.000123119,26.8683
3705,7887.51,-0.481541,3.19543,1.12468,0.445566,3.99393,1.33185,-0.000123119,26.7629
3746,7928.72,-0.96209,3.09602,1.12468,0.45158,3.99393,1.35095,-0.000307751,26.841
3787,7969.91,-0.481541,3.19574,1.12575,0.454979,3.99753,1.3616,-0.000123119,26.7968
3828,8011.11,-2.40554,2.78732,1.12575,0.471272,3.99753,1.40617,-0.000307798,26.9939
3869,8052.29,-0.96227,3.08125,1.12788,0.487293,4.00489,1.45198,0.0,26.9497
3910,8093.47,-0.000270769,3.29115,1.13216,0.491746,4.02053,1.4657,6.15597e-05,27.0109
3952,8134.01,-0.481361,3.20097,1.13216,0.491758,4.02053,1.46574,-0.0185278,26.9225
3993,8175.17,0.481,3.37486,1.13232,0.498698,4.02108,1.48759,0.0565683,27.0279
4034,8216.35,-0.481541,3.19204,1.13323,0.50116,4.02414,1.49545,-6.15597e-05,27.0279
4075,8257.54,-0.481361,3.1902,1.13429,0.507204,4.02773,1.51443,0.0,26.9973
4116,8298.7,0.480819,3.37147,1.13439,0.514216,4.02806,1.53647,0.05638361,27.0109
4157,8339.91,-0.481361,3.1905,1.13536,0.51662,4.03133,1.54415,0.0,26.9633
4198,8381.12,-2.40554,2.77748,1.13536,0.53771,4.03133,1.60151,-0.000307798,26.8104
4239,8422.31,-0.96227,3.07786,1.1375,0.550123,4.0387,1.63793,0.0,26.7187
4280,8463.47,-0.000270769,3.28899,1.14177,0.552158,4.05432,1.64419,6.15597e-05,26.7629
4322,8504.07,-0.481361,3.19358,1.14177,0.553375,4.05432,1.64808,-0.000246239,26.9125
4363,8545.26,-0.000270769,3.28591,1.14285,0.559102,4.05794,1.66604,-0.0187125,26.8819
4404,8586.46,-0.96227,3.09171,1.14285,0.563255,4.05794,1.6792,-0.00043087,26.8377
4445,8627.66,-0.481361,3.18681,1.14391,0.568828,4.06154,1.69675,0.0,26.8241
4486,8668.86,-0.000451223,3.28376,1.14498,0.57461,4.06515,1.71485,-0.0185894,26.841
4527,8710.05,-0.481541,3.18681,1.14498,0.578231,4.06515,1.7264,-6.15597e-05,26.858
4568,8751.25,0.962812,3.42718,1.14507,0.604015,4.06544,1.79616,0.131541,26.9055
4609,8792.48,1.92481,3.64354,1.14792,0.61257,4.07542,1.82245,0.11406,26.9803
4650,8833.7,-0.000451223,3.28745,1.15139,0.612574,4.0881,1.82246,6.15597e-05,27.1162
4692,8874.09,-0.481541,3.18835,1.15139,0.615001,4.0881,1.83021,-0.000184679,27.1774
4733,8915.26,-0.000451223,3.28561,1.15246,0.619532,4.0917,1.84434,0.000123072,27.1026
4774,8956.46,0.481,3.36778,1.15252,0.625945,4.09192,1.86446,0.0564451,27.0584
4815,8997.66,-0.481541,3.18312,1.15353,0.630449,4.09531,1.87881,-0.000123119,27.0279
4856,9038.86,-0.000270769,3.28345,1.1546,0.635028,4.09891,1.89307,0.000123119,26.8614
4897,9080.07,-3.84935,2.52233,1.1546,0.639959,4.09891,1.9087,-0.132218,26.8104
4938,9121.3,-0.962451,3.06924,1.15673,0.664783,4.10626,1.9753,-0.074973,26.7629
4979,9162.49,-0.000451223,3.28068,1.16101,0.67298,4.12186,2.00044,-0.0754654,26.9125
5021,9202.96,-0.000451223,3.28499,1.16101,0.672985,4.12186,2.00046,0.0,27.0008
5062,9244.14,-0.481361,3.18404,1.16101,0.676619,4.12186,2.01204,-6.15597e-05,26.9125
5103,9285.35,-0.481361,3.18712,1.16208,0.680525,4.12547,2.02417,-0.000307751,26.7935
5144,9326.54,-0.481361,3.18527,1.16315,0.68657,4.12905,2.0431,-0.0376711,26.7187
5185,9367.68,-0.481361,3.17973,1.16315,0.692071,4.12905,2.0606,0.0,26.8104
5226,9408.87,-0.481361,3.18496,1.16421,0.695976,4.13265,2.0727,-0.000307798,26.9328
5267,9450.03,-2.40554,2.76947,1.16421,0.709527,4.13265,2.10967,0.0561989,27.0245
5308,9491.24,-0.96227,3.06155,1.16635,0.727609,4.13997,2.16043,-0.000123119,26.9191
5349,9532.43,-0.000451223,3.27637,1.17062,0.733419,4.15555,2.17822,6.15597e-05,27.1774
5391,9573.01,-0.000270769,3.28222,1.17062,0.733423,4.15555,2.17824,0.000184679,27.072
5432,9614.22,-0.96227,3.0794,1.17062,0.739372,4.15555,2.19695,-0.000246239,27.0584
5473,9655.41,-0.481541,3.18066,1.17169,0.742175,4.15915,2.20576,-0.000184679,27.1332
5514,9696.6,-0.481361,3.1785,1.17276,0.748216,4.16274,2.22465,-0.000123119,27.072
5555,9737.78,-0.96227,3.0754,1.17276,0.754766,4.16274,2.24525,-0.000307751,26.9803
5596,9778.96,-0.481361,3.17881,1.17383,0.757623,4.16633,2.25422,-6.15597e-05,26.8852
5637,9820.15,-2.40554,2.75593,1.17383,0.776052,4.16633,2.30408,-0.00043087,26.8683
5678,9861.35,-0.96227,3.05447,1.17596,0.790463,4.17365,2.3453,0.0,27.0314
5719,9902.53,-0.000270769,3.27083,1.18025,0.793838,4.18924,2.35561,6.15597e-05,27.1503
5761,9943.05,-0.481361,3.17912,1.18025,0.794385,4.18924,2.35735,-0.000246191,27.0756
5802,9984.28,0.481,3.36162,1.18096,0.800792,4.19161,2.37737,0.000677109,27.062
5843,10025.5,-0.4811804,3.17235,1.18132,0.803804,4.19282,2.38693,-0.000123119,27.0178
5884,10066.7,-0.4811804,3.16958,1.18239,0.809845,4.19642,2.40577,-0.000123119,27.0042
5925,10107.9,0.481,3.3567,1.18304,0.816306,4.1986,2.42592,0.000677109,27.0381
5966,10149,-0.481361,3.16834,1.18346,0.819257,4.2,2.43528,-0.000123072,26.9939
6007,10190.2,-2.40572,2.73931,1.18346,0.842532,4.2,2.49772,-0.000369358,27.0856
6048,10231.4,-0.96227,3.0437,1.18559,0.853325,4.20728,2.5296,0.0,27.2963
6089,10272.6,-0.000270769,3.26221,1.18987,0.854275,4.22282,2.53249,0.000123119,27.2521
6131,10313.1,-0.481361,3.16465,1.18987,0.856027,4.22282,2.53804,-0.000184679,27.3133
6172,10354.3,-0.000270769,3.25914,1.19094,0.861231,4.22639,2.55418,0.000123072,27.1332
6213,10395.5,-0.96227,3.05847,1.19094,0.866438,4.22639,2.57044,-0.00036931,27.2079
6254,10436.7,-0.481361,3.1548,1.19201,0.87148,4.22996,2.58624,-0.000123119,27.0856
6295,10477.9,-0.000451223,3.25329,1.19308,0.876733,4.23354,2.60249,0.000123119,27.0823
6336,10519.1,-0.481361,3.15296,1.19308,0.880892,4.23354,2.61561,-6.15597e-05,27.0178
6377,10560.3,0.962631,3.40441,1.19422,0.906134,4.23742,2.68263,0.001908207,27.1367
6418,10601.5,1.92481,3.62015,1.19815,0.914685,4.25141,2.70856,0.00172353,27.344
6459,10642.7,-0.000451223,3.25052,1.19949,0.914689,4.25625,2.70857,-6.15597e-05,27.2998
6501,10683.2,-0.481361,3.14896,1.19949,0.917657,4.25625,2.71793,-0.000184679,27.2862
6542,10724.4,-0.000270769,3.24744,1.20056,0.92164,4.25983,2.73015,0.000184679,27.1673
6583,10765.6,0.481,3.33331,1.20117,0.928052,4.26187,2.75001,0.00080018,27.1537
6624,10806.8,-0.481361,3.14003,1.20163,0.933103,4.26338,2.76588,-6.15597e-05,27.0789
6665,10847.9,-0.000451223,3.24221,1.20269,0.937142,4.26694,2.77824,0.000123119,27.0653
6706,10889.1,-3.84935,2.45524,1.20269,0.946327,4.26694,2.80415,-0.00221591,27.0517
6747,10930.3,-0.962451,3.01969,1.20483,0.967972,4.27418,2.8623,-0.000307751,27.174
6788,10971.5,-0.000270769,3.23359,1.20911,0.975113,4.28959,2.88385,-6.15597e-05,27.3235
6830,11012,-0.000451223,3.23821,1.20911,0.975117,4.28959,2.88387,0.000123072,27.2793
6871,11053.3,-0.96209,3.036,1.20911,0.979727,4.28959,2.89825,-0.000553989,27.1604
6912,11094.4,-0.481361,3.1348,1.21018,0.983205,4.29314,2.90891,-0.000184679,27.1604
6953,11135.7,-0.481361,3.13018,1.21125,0.989245,4.29668,2.92751,-0.000246239,27.1604
6994,11176.8,-0.962451,3.02708,1.21125,0.995127,4.29668,2.94582,-0.000615549,27.1604
7035,11218.1,-0.481361,3.12833,1.21232,0.998659,4.30022,2.95662,-0.000246191,27.2046
7076,11259.3,-2.40572,2.707,1.21232,1.01445,4.30022,2.99864,-0.00036931,27.0992
7117,11300.5,-0.962451,2.99876,1.21446,1.03083,4.30742,3.04403,-0.000123072,27.2182
7158,11341.6,-0.000451223,3.21697,1.21874,1.03552,4.32276,3.05808,6.15597e-05,27.2318
7200,11382.1,-0.000451223,3.22128,1.21874,1.03552,4.32276,3.0581,0.0,27.3065
7241,11423.3,0.480819,3.29238,1.21878,1.04247,4.32287,3.07944,0.0558912,27.157
7282,11464.5,-0.481361,3.11325,1.21981,1.04481,4.32628,3.08673,-0.000123119,27.157
7323,11505.7,-0.481361,3.10895,1.22088,1.05084,4.32981,3.10519,-0.000123119,27.0959
7364,11546.9,-0.96227,3.00184,1.22088,1.05794,4.32981,3.1269,-0.000307798,27.0823
7405,11588.1,-0.481541,3.10618,1.22195,1.06026,4.33333,3.13412,-0.000123119,27.0211
7446,11629.3,-2.40572,2.67222,1.22195,1.08091,4.33333,3.18829,-0.000553989,26.9769
7487,11670.5,-0.96227,2.97322,1.22408,1.09366,4.34045,3.22425,-6.15597e-05,27.2454
7528,11711.7,-0.000451223,3.19512,1.22836,1.09594,4.35567,3.23101,0.0,27.3643
7570,11752.1,-0.481361,3.09879,1.22836,1.09703,4.35567,3.23439,-0.000307751,27.2454
7611,11793.3,-0.000270769,3.18804,1.22943,1.10289,4.35919,3.25222,-0.0184047,27.1231
7652,11834.5,-0.96227,2.99076,1.22943,1.10676,4.35919,3.26411,-0.019328,27.2454
7693,11875.7,-0.4811804,3.0834,1.2305,1.11248,4.36268,3.2815,-0.000123072,27.2623
7734,11916.9,-0.000451223,3.18189,1.23156,1.11841,4.36615,3.29946,-0.01822,27.2012
7775,11958.1,-0.481361,3.08125,1.23156,1.1219,4.36615,3.31022,-0.000123072,27.1706
7816,11999.3,-2.40572,2.62882,1.23156,1.14732,4.36615,3.37586,-0.000738668,27.1706
7857,12040.5,1.92481,3.5072,1.23395,1.15637,4.37411,3.40236,0.113383,27.4221
7898,12081.7,-0.000451223,3.17573,1.23797,1.15637,4.3883,3.40237,6.15597e-05,27.7209
7940,12122.2,-0.4811804,3.07263,1.23797,1.15866,4.3883,3.40943,-0.00036931,27.6157
7981,12163.4,-0.000270769,3.16588,1.23904,1.16329,4.39178,3.42329,6.15597e-05,27.4357
8022,12204.6,-0.96227,2.94798,1.23904,1.16957,4.39178,3.44224,-0.000738621,27.4662
8063,12245.7,-0.481361,3.04,1.2401,1.17408,4.39523,3.45595,-0.000246239,27.5104
8104,12287,-0.000451223,3.13234,1.24117,1.1788,4.39866,3.46994,0.000184631,27.4493
8145,12328.2,-0.481361,3.01538,1.24117,1.18349,4.39866,3.48415,-0.000307798,27.5682
8186,12369.4,-0.96227,2.80302,1.2433,1.20829,4.40539,3.54468,-0.0733726,27.4629
8227,12410.6,-0.000451223,3.00246,1.24757,1.21676,4.4197,3.56813,-0.074973,27.2387
8269,12451,-0.000451223,3.00738,1.24757,1.21676,4.4197,3.56814,6.15597e-05,27.3609
8310,12492.2,-0.481361,2.88273,1.24757,1.22026,4.4197,3.57828,-0.000553989,27.1809
8351,12533.4,-0.481361,2.87165,1.24864,1.22417,4.42297,3.58919,-0.0009233,27.0925
8392,12574.7,-0.481541,2.83564,1.24971,1.23021,4.4262,3.60603,-0.0374865,26.9294
8433,12615.9,-0.481361,2.77809,1.24971,1.23572,4.4262,3.62149,-0.000677109,26.9328
8474,12657.1,-0.481361,2.76332,1.25077,1.23963,4.42933,3.63195,-0.00141578,26.9328
8516,13020.6,1.0996,3.19481,1.25995,1.24461,4.45816,3.64514,0.001600409,26.8852
8557,13225.8,1.09942,3.45765,1.32261,1.24461,4.66868,3.64514,0.000246239,26.8955
8598,13431,1.0996,3.48473,1.38528,1.24461,4.88628,3.64514,6.15597e-05,26.9261
8639,13636.3,1.0996,3.51459,1.44797,1.24461,5.10565,3.64514,0.000123119,26.9228
8680,13841.5,1.0996,3.53644,1.51065,1.24461,5.32667,3.64514,6.15597e-05,27.0756
8721,14046.7,1.0996,3.54998,1.57333,1.24461,5.54882,3.64514,6.15597e-05,27.3304
8762,14252,1.0996,3.5546,1.63602,1.24461,5.77153,3.64514,0.0,27.5682
8803,14457.2,1.09978,3.55737,1.69869,1.24461,5.9944,3.64514,0.0,27.626
8844,14662.4,1.0996,3.56229,1.76137,1.24461,6.21749,3.64514,6.15597e-05,27.4732
8885,14867.6,1.09942,3.56845,1.82404,1.24461,6.44094,3.64514,0.0,27.609
8926,15072.8,1.0996,3.57614,1.88672,1.24461,6.66481,3.64514,0.0,27.548
8967,15278,1.0996,3.5863,1.94939,1.24461,6.88924,3.64514,6.15597e-05,27.5311
9008,15483.2,1.09942,3.59522,2.01206,1.24461,7.11431,3.64514,0.0,27.4869
9049,15684.7,1.08841,3.60107,2.07356,1.24461,7.33564,3.64514,0.0,27.5174
9090,15889.9,1.0285,3.60107,2.13408,1.24461,7.55357,3.64514,6.1512e-05,27.4869
9131,16095.1,0.890811,3.60107,2.18937,1.24461,7.75269,3.64514,0.0,27.3374
9172,16300.3,0.594686,3.60107,2.23243,1.24461,7.90776,3.64514,0.0,27.0723
9213,16505.5,0.31011,3.60107,2.25745,1.24461,7.99784,3.64514,0.0,27.0554
9254,16710.7,0.177296,3.60107,2.27081,1.24461,8.04596,3.64514,6.1512e-05,26.7972
9295,16915.9,0.116483,3.60107,2.27899,1.24461,8.07542,3.64514,0.0,26.7225
9336,17121.1,0.0836403,3.60138,2.28462,1.24461,8.09567,3.64514,6.15597e-05,26.6035
9377,17326.3,0.0639708,3.60107,2.28879,1.24461,8.11069,3.64514,0.0,26.8377
9442,17591,-2.04084,3.11572,2.29096,1.24577,8.1185,3.64888,-0.0717721,26.858
9483,17632.2,-2.08343,3.05201,2.29198,1.2513,8.12215,3.66661,-0.03447032,26.7663
9524,17673.4,-0.81899,3.20466,2.29209,1.26481,8.12252,3.70789,0.0502282,26.8716
9565,17714.6,-0.114679,3.37794,2.29447,1.26521,8.13073,3.70919,-0.004493427,26.858
9606,17755.8,-0.544881,3.25175,2.29459,1.27626,8.13115,3.74287,-0.0160656,26.8716
9647,17797,-0.11919,3.32008,2.29492,1.28431,8.13229,3.76816,-0.004062605,26.7799
9688,17838.1,-0.831622,3.18312,2.29509,1.28988,8.13285,3.78602,-0.0140344,26.7935
9729,17879.3,0.565994,3.43334,2.29515,1.29916,8.13307,3.81442,0.138251,26.7935
9770,17920.5,0.538023,3.43118,2.29565,1.30934,8.13476,3.84542,0.0344088,26.943
9811,17961.7,-0.921307,3.14865,2.29625,1.3164,8.13681,3.86762,0.00049243,26.9125
9852,18002.9,0.0664972,3.33546,2.2963,1.32384,8.137,3.89101,0.0415491,26.9125
9893,18044.2,-0.470714,3.23821,2.29663,1.3285,8.13815,3.90597,0.0139112,26.9566
9934,18085.4,-1.15734,3.11018,2.29855,1.33064,8.14471,3.91259,0.004431915,26.9872
9975,18126.6,-1.04474,3.13326,2.29975,1.33511,8.14877,3.92646,-0.0414875,27.0008
10016,18167.8,0.444187,3.41579,2.30128,1.34332,8.15402,3.95009,-0.00677099,26.8955
10058,18208,-0.184875,3.29299,2.3018,1.34827,8.15576,3.96509,-0.0206206,26.8955
10099,18249.2,-0.0462865,3.30838,2.3026,1.35666,8.15849,3.99034,0.0384098,26.9703
10140,18290.4,0.246771,3.37486,2.30384,1.36392,8.16269,4.01196,-0.002031279,26.8649
10181,18331.6,-0.641423,3.1942,2.30508,1.37104,8.16692,4.03287,0.0221595,26.9397
10222,18372.8,-1.41954,3.04462,2.30539,1.3783,8.16798,4.05537,0.004124117,26.8344
10263,18414.009,-0.977609,3.13203,2.30558,1.38538,8.1686,4.07774,-0.000984859,26.8207
10304,18455.2,-0.462594,3.2339,2.3057,1.39067,8.16902,4.09458,-0.003754806,26.8377
10345,18496.4,-1.18152,3.08648,2.30589,1.40064,8.16965,4.12495,-0.0219748,26.7629
10386,18537.6,-0.467466,3.22682,2.30683,1.41036,8.17286,4.15428,0.0195742,26.7799
10427,18578.8,-0.722989,3.17573,2.30687,1.41797,8.173,4.1782,0.0276378,26.9158
10468,18620,-0.147341,3.29022,2.30701,1.42418,8.17347,4.19775,0.007755852,26.9022
10509,18661.3,0.686898,3.46196,2.30832,1.42767,8.17794,4.20887,0.0200666,26.9939
10550,18702.5,0.277448,3.37732,2.3096,1.43153,8.18231,4.22078,0.0589689,26.9191
10591,18743.7,-0.000451223,3.32746,2.31083,1.43569,8.18648,4.23354,0.000123119,26.9803
10633,18783.9,-0.000270769,3.32746,2.3122,1.44208,8.19115,4.2516,0.000123119,26.9497
10674,18825.1,-0.000451223,3.32777,2.31322,1.44731,8.19463,4.26746,0.000123119,26.9939
10715,18866.3,-1.95044,2.93813,2.31333,1.45719,8.19497,4.29727,-0.0485047,26.8886
10756,18907.5,0.00369922,3.329,2.31569,1.46267,8.203,4.31331,-0.004554987,26.8104
10797,18948.7,-0.145897,3.28376,2.31579,1.47298,8.20331,4.34406,-0.0146499,26.841
10838,18989.9,-0.689424,3.17819,2.31601,1.48016,8.20405,4.36636,-0.000307751,26.7493
10879,19031.1,-0.468729,3.22528,2.31631,1.48628,8.20507,4.3857,0.004554987,26.7629
10920,19072.3,-0.849126,3.14588,2.31632,1.49303,8.20509,4.40701,-0.0052321,26.8683
10961,19113.5,-0.818629,3.13941,2.31669,1.50581,8.20635,4.44492,0.0478276,26.8377
11002,19154.7,-0.276907,3.2536,2.31747,1.51191,8.20903,4.464,0.0267145,26.7323
11043,19195.9,-0.870059,3.13572,2.31748,1.52019,8.20903,4.4899,-0.01311102,26.8071
11084,19237.1,-0.458082,3.22313,2.31787,1.52471,8.21036,4.50421,0.013665,26.746
11125,19278.3,-0.000270769,3.325,2.31978,1.52648,8.21687,4.50984,0.0,26.7902
11166,19319.4,0.078768,3.32962,2.32059,1.53231,8.21961,4.52776,0.0677711,26.7902
11207,19360.6,-0.0143462,3.29484,2.32144,1.5409,8.22247,4.55247,0.126555,26.6406
11249,19401,-1.06639,3.10125,2.32282,1.54464,8.22716,4.56368,0.009048462,26.8649
11290,19442.2,-1.16943,3.07417,2.32382,1.55139,8.23057,4.58386,0.0439497,26.8344
11331,19483.4,0.198409,3.33608,2.32432,1.56149,8.23226,4.61395,-0.005232143,26.8344
11372,19524.6,-2.84675,2.75008,2.3263,1.56566,8.23894,4.62576,-0.000553989,26.7154
11413,19565.8,-0.670657,3.17327,2.32648,1.57302,8.23954,4.64846,-0.0318235,26.7154
11454,19607,-0.399435,3.21697,2.32678,1.58166,8.24056,4.67514,0.0139728,26.7765
11495,19648.2,-0.473962,3.20466,2.32693,1.58731,8.24104,4.69298,0.002954578,26.7018
11536,19689.4,0.0959112,3.30561,2.32709,1.59669,8.24158,4.72132,0.0490587,26.6439
11577,19730.6,-0.335193,3.22713,2.32804,1.60605,8.2448,4.74932,-0.0204976,26.6303
11618,19771.7,-1.20877,3.05416,2.32808,1.61376,8.24494,4.77327,-0.0427186,26.9022
11659,19812.9,-0.468729,3.19789,2.32821,1.62086,8.24536,4.79533,-0.0181584,26.8274
11700,19854,0.404848,3.3687,2.32863,1.62532,8.24678,4.80944,0.009356213,26.9633
11741,19895.3,0.133446,3.32315,2.33075,1.62733,8.25395,4.81557,-0.00301619,26.739
11782,19936.5,0.439676,3.37517,2.33177,1.63334,8.25736,4.83385,0.0859911,26.9633
11823,19977.7,-0.000631677,3.29299,2.33341,1.63974,8.26291,4.85173,6.15597e-05,26.7357
11865,20018.1,0.522504,3.39179,2.33407,1.64499,8.26514,4.86748,0.007817363,26.8241
11906,20059.3,0.187762,3.31854,2.3345,1.65336,8.26659,4.89232,0.0270223,26.6881
11947,20100.5,0.161416,3.32223,2.33622,1.66035,8.27233,4.91282,-0.007201815,26.7323
11988,20141.6,-1.41413,3.004,2.33691,1.66927,8.27468,4.93894,-0.0168043,26.8377
12029,20182.9,-0.741575,3.13634,2.33723,1.67609,8.27574,4.95989,-0.00326238,26.7018
12070,20224,-1.04366,3.08155,2.33751,1.68285,8.27668,4.98098,-0.0462272,26.8071
12111,20265.2,-0.379946,3.20836,2.33754,1.68821,8.27677,4.99789,0.00301619,26.6712
12152,20306.4,0.150769,3.29669,2.33774,1.7006,8.27745,5.03455,0.10378,26.7154
12193,20347.7,-0.920766,3.10156,2.3387,1.70751,8.28067,5.05558,-0.0262836,26.7902
12234,20388.9,-1.1568,3.05232,2.3387,1.71584,8.28068,5.08139,-0.0405642,26.7902
12275,20430,0.0832794,3.2973,2.33906,1.72119,8.28191,5.09805,0.00289307,26.729
12316,20471.2,0.199131,3.33023,2.34087,1.72409,8.28801,5.10719,-0.0186509,26.7121
12357,20512.4,0.00478194,3.28899,2.3418,1.72795,8.29111,5.11896,-0.005539894,26.5931
12398,20553.6,-1.88114,2.92182,2.34266,1.73296,8.29398,5.13409,-0.0731263,26.7121
12440,20594,-0.394021,3.21205,2.34403,1.73864,8.29859,5.14978,-0.014773,26.7563
12481,20635.2,-0.937007,3.10433,2.34505,1.74447,8.30203,5.16725,-0.03631692,26.6815
12522,20676.4,-2.20235,2.83995,2.34515,1.75783,8.30238,5.20645,0.001846647,26.7427
12563,20717.6,-0.000270769,3.28899,2.34752,1.75912,8.31031,5.2103,6.15597e-05,26.7596
12604,20758.8,-0.130558,3.25114,2.34765,1.76989,8.31073,5.24213,-0.00258532,26.7596
12645,20800,-0.770448,3.1271,2.34797,1.77782,8.31183,5.26646,0.006524706,26.6406
12686,20841.2,-0.558595,3.16927,2.34814,1.7836,8.31237,5.28458,0.00350857,26.6576
12727,20882.5,-1.06314,3.06216,2.34814,1.79193,8.31237,5.31009,-0.007571125,26.6134
12768,20923.6,0.152032,3.29545,2.34855,1.80332,8.31373,5.34362,0.0374865,26.5997
12809,20964.8,-0.928886,3.09017,2.34929,1.81014,8.31624,5.36469,0.00338545,26.7799
12850,21006.1,0.03347411,3.27606,2.34934,1.81742,8.3164,5.38723,0.004678106,26.7493
12891,21047.2,-0.102949,3.25544,2.34969,1.82221,8.31758,5.40225,0.0282534,26.8104
12932,21088.443,-1.64619,2.96737,2.3516,1.82379,8.32404,5.40714,-0.0533675,26.8104
12973,21129.7,0.002796947,3.28376,2.3528,1.82871,8.32803,5.4221,-0.009110021,26.6439
13014,21170.9,0.635649,3.39733,2.35403,1.83729,8.33217,5.44646,0.002708387,26.7629
13056,21211.1,0.138859,3.3013,2.35479,1.84224,8.33473,5.46119,0.002708387,26.7629
13097,21252.2,-0.129837,3.2379,2.35565,1.85048,8.33761,5.48551,0.0510283,26.7629
13138,21293.4,0.280515,3.32777,2.35673,1.85789,8.34118,5.50725,-0.001046419,26.8513
13179,21334.6,-0.853998,3.10033,2.35813,1.86462,8.3459,5.52659,0.019882,26.7902
13220,21375.8,-1.54207,2.97076,2.35845,1.87165,8.34696,5.54804,-0.01169529,26.8649
13261,21417,-0.586565,3.15511,2.35863,1.879,8.34756,5.57083,-0.0246832,26.729
13302,21458.3,-0.732914,3.13049,2.35876,1.88438,8.34799,5.58765,-0.0207438,26.8174
13343,21499.5,-0.832524,3.10371,2.35894,1.89396,8.34859,5.61638,-0.0161272,26.7257
13384,21540.6,-0.976346,3.0754,2.35988,1.90419,8.35175,5.64671,-0.005170536,26.8753
13425,21581.8,-1.44643,2.98368,2.35992,1.91164,8.35189,5.66972,-0.032439,26.9195
13466,21623,0.0444818,3.27422,2.36005,1.91795,8.35232,5.68927,0.0230828,26.8889
13507,21664.2,0.48515,3.36932,2.36104,1.92166,8.35564,5.70091,0.002215958,26.8142
13548,21705.3,-0.69556,3.13788,2.36262,1.9254,8.36094,5.71224,0.02517562,26.8142
13589,21746.6,-0.000270769,3.27668,2.36389,1.9297,8.36518,5.72523,-0.001600409,26.8616
13631,21787,-0.000451223,3.27637,2.36525,1.93608,8.36977,5.74293,0.000123119,26.8649
13672,21828.2,-0.000451223,3.27668,2.36628,1.9413,8.3732,5.7585,-0.0009233,26.9125
13713,21869.4,-1.03626,3.06463,2.36638,1.95034,8.37354,5.78531,-0.0248679,26.6881
13754,21910.6,0.0423164,3.28468,2.36875,1.95666,8.38146,5.8035,-0.009479332,26.8241
13795,21951.8,0.249297,3.30592,2.36884,1.96685,8.38175,5.83334,0.0373634,26.8852
13836,21993,-0.681845,3.12526,2.36908,1.97371,8.38254,5.8543,0.0320082,26.9464
13877,22034.2,-0.390593,3.18404,2.36936,1.9801,8.38347,5.87414,-0.000246191,26.9294
13918,22075.3,-1.42153,2.98153,2.36939,1.98644,8.38357,5.89382,-0.0243754,27.0042
13959,22116.5,-1.27049,2.99569,2.36977,1.99911,8.38484,5.93072,0.0321928,27.0483
14000,22157.7,-0.971654,3.06309,2.37055,2.00546,8.38746,5.95018,0.002646828,27.062
14041,22199,-0.535677,3.14495,2.37055,2.01348,8.38746,5.97485,-0.003693294,27.1367
14082,22240.2,-0.458082,3.16588,2.37095,2.01837,8.38877,5.98997,0.00984869,27.0925
14123,22281.4,-0.000270769,3.26868,2.37286,2.02039,8.39519,5.99628,6.15597e-05,27.1367
14164,22322.6,-0.835772,3.09448,2.37366,2.02605,8.39784,6.01335,0.0162503,27.062
14205,22363.8,-3.84556,2.49156,2.37452,2.03413,8.40069,6.03617,-0.08008194,27.0008
14247,22404.1,-1.17683,3.02185,2.3759,2.03788,8.4053,6.04704,0.01212616,26.9397
14288,22445.3,-2.27868,2.80241,2.3769,2.04427,8.40865,6.06587,-0.0379789,27.1198
14329,22486.4,0.319494,3.29976,2.37728,2.05541,8.40989,6.09831,0.0212362,27.1945
14370,22527.6,-2.6358,2.735,2.37938,2.05802,8.41687,6.10567,-0.0395793,27.0587
14411,22568.8,0.165386,3.27637,2.37954,2.06678,8.41741,6.13166,0.0179122,27.0892
14452,22610,-0.776944,3.08709,2.37984,2.07524,8.41839,6.15729,-0.0142806,27.0756
14493,22651.2,-0.0103762,3.23729,2.38001,2.08079,8.41893,6.17452,0.000184679,26.9872
14534,22692.3,-0.975624,3.03847,2.38016,2.09021,8.41945,6.20236,-0.01292634,27.062
14575,22733.6,-0.83108,3.07263,2.38112,2.09974,8.42263,6.2303,-0.04715047,27.2454
14616,22774.7,-0.0897759,3.21143,2.38116,2.10728,8.42278,6.25328,0.0275763,27.0992
14657,22815.9,0.008391018,3.23175,2.38129,2.1144,8.4232,6.27495,-0.0068325,27.0856
14698,22857.1,0.306501,3.29207,2.38161,2.11919,8.42426,6.28983,0.0165581,27.0279
14739,22898.3,0.4016,3.31823,2.38366,2.1212,8.43108,6.29582,0.0106489,27.089
14780,22939.5,-0.0378052,3.2219,2.38467,2.12721,8.43441,6.31378,0.0560758,27.2079
14821,22980.6,-0.000451223,3.23544,2.3865,2.13362,8.44047,6.33126,-0.0071403,27.1774
14863,23021.1,0.585483,3.34408,2.38684,2.13884,8.44158,6.34662,0.0227135,27.0856
14904,23062.3,-0.191552,3.18281,2.38756,2.14718,8.44398,6.37082,-0.009725571,27.1434
14945,23103.5,0.134709,3.25668,2.38923,2.15422,8.44947,6.391,-0.009664011,27.1264
14986,23144.6,-1.76565,2.86888,2.39,2.16242,8.45202,6.41439,-0.0554603,27.0789
15027,23185.8,-0.654597,3.08402,2.39031,2.1697,8.45305,6.43622,0.0140959,27.1367
15068,23227,-1.04347,3.01446,2.39058,2.17637,8.45394,6.45658,-0.04591937,27.0925
15109,23268.2,-0.648642,3.08709,2.39062,2.18165,8.45405,6.47286,0.00701714,27.062
15150,23309.3,-2.03471,2.79656,2.3908,2.19352,8.45466,6.50722,-0.002339029,27.0178
15191,23350.4,-0.141205,3.17758,2.39178,2.20092,8.45787,6.52899,-0.009110021,27.0925
15232,23391.6,-0.104573,3.17665,2.39178,2.20911,8.45787,6.55374,0.0321928,27.0789
15273,23432.8,0.016331,3.20435,2.39192,2.21492,8.45834,6.57133,0.002831507,27.1537
15314,23473.9,0.687439,3.34993,2.39382,2.21796,8.46462,6.58066,0.0192665,27.1095
15355,23515.1,0.03979,3.21851,2.39486,2.22181,8.46801,6.59211,-0.0108951,27.1706
15396,23556.2,-0.587287,3.09602,2.39574,2.22604,8.47088,6.60456,-0.02259035,27.1842
15438,23597,-0.02030115,3.20497,2.3971,2.2324,8.47537,6.62172,-0.000553989,27.2012
15479,23638.2,-1.15211,2.98461,2.39813,2.23767,8.47873,6.63704,-0.0443805,27.1876
15520,23679.4,-2.45372,2.69407,2.39823,2.25044,8.47907,6.67354,-0.0180354,27.2487
15561,23720.7,-0.000451223,3.20189,2.40061,2.25297,8.48682,6.68066,6.15597e-05,27.2793
15602,23761.9,-0.0524219,3.16804,2.40074,2.26367,8.48722,6.7112,-0.005970764,27.2657
15643,23803,-0.920947,2.99076,2.40092,2.2717,8.48783,6.73503,0.0106489,27.4288
15684,23844.1,-0.375073,3.10125,2.40123,2.27723,8.48883,6.75177,0.00043087,27.3235
15725,23885.3,-0.892615,2.99138,2.40123,2.28466,8.48883,6.77406,-0.0126186,27.4118
15766,23926.4,-0.339705,3.08648,2.40161,2.29706,8.49007,6.80898,0.0196358,27.439
15807,23967.6,-1.01911,2.95906,2.40239,2.30346,8.49259,6.82803,-0.0169889,27.4084
15848,24008.7,-0.098979,3.13941,2.40243,2.31082,8.49274,6.84998,-0.002831459,27.3948
15889,24049.9,-0.834509,2.99815,2.40278,2.31581,8.49386,6.86505,-0.0285611,27.4729
15930,24091.1,-0.869337,3.01415,2.40469,2.31689,8.5001,6.86834,-0.0337317,27.4152
15971,24132.4,0.0944675,3.18958,2.40586,2.32261,8.50388,6.88506,-0.009971762,27.3268
16012,24173.5,0.584219,3.26252,2.40673,2.33122,8.50669,6.90842,0.0217286,27.371
16054,24214.1,0.0874298,3.15942,2.40776,2.33618,8.51001,6.92255,0.0525672,27.2351
16095,24255.2,-1.33599,2.85534,2.40874,2.34381,8.5132,6.94399,0.008125162,27.2963
16136,24296.3,0.266621,3.16465,2.40964,2.35182,8.51606,6.96625,-0.00166197,27.1162
16177,24337.5,-0.885578,2.91228,2.41122,2.35794,8.5211,6.98266,0.014773,27.0109
16218,24378.7,-1.24197,2.82518,2.41153,2.36496,8.52209,7.00278,-0.003631687,26.8886
16259,24419.8,0.0511586,3.04924,2.41171,2.37249,8.52264,7.02442,0.0140344,26.7799
16300,24461,-0.192274,2.9803,2.41184,2.37805,8.52304,7.04044,0.0288689,26.5692
16341,24502.1,-0.724793,2.81379,2.41203,2.3874,8.5236,7.06576,-0.0163119,26.7187
16382,24543.4,-1.46231,2.60143,2.41296,2.3975,8.52639,7.09215,-0.043211,26.7187
16423,24584.6,-0.606596,2.69899,2.413,2.40495,8.52652,7.11209,-0.01058731,26.7323
16464,24625.8,-0.556971,2.62975,2.41313,2.4117,8.52688,7.12962,0.005724526,26.746
16505,24666.9,0.432999,2.80887,2.41403,2.41558,8.52941,7.13966,0.008371353,26.746
16546,24708.1,-1.6036,2.36537,2.41569,2.41851,8.53411,7.14688,-0.0463502,26.9703
16587,24749.3,-9.03152e-05,2.60882,2.41697,2.42361,8.53755,7.15893,-0.009110021,26.8955
16629,25193,1.09942,3.32715,2.45669,2.42558,8.66397,7.16324,0.000738668,26.9464
16670,25398.1,1.09942,3.46627,2.51932,2.42558,8.87828,7.16324,6.15597e-05,27.0687
16711,25603.2,1.0996,3.49212,2.58195,2.42558,9.09615,7.16324,6.15597e-05,27.1401
16752,25808.2,1.0996,3.52043,2.64458,2.42558,9.3158,7.16324,6.15597e-05,27.3268
16793,26013.3,1.0996,3.53982,2.70722,2.42558,9.53696,7.16324,0.0,27.5069
16834,26218.4,1.09942,3.54967,2.76985,2.42558,9.75904,7.16324,-6.15597e-05,27.5273
16875,26423.4,1.0996,3.55306,2.83248,2.42558,9.98147,7.16324,-6.1512e-05,27.8092
16916,26628.5,1.0996,3.55644,2.89511,2.42558,10.2041,7.16324,0.0,27.8092
16957,26833.5,1.0996,3.56137,2.95773,2.42558,10.427,7.16324,0.0,27.4662
16998,27038.5,1.0996,3.56814,3.02035,2.42558,10.6502,7.16324,0.0,27.5104
17039,27243.6,1.0996,3.57706,3.08298,2.42558,10.8739,7.16324,6.1512e-05,27.6701
17080,27448.7,1.09942,3.58722,3.14562,2.42558,11.0983,7.16324,0.0,27.7312
17121,27653.7,1.0996,3.59584,3.20825,2.42558,11.3233,7.16324,0.0,27.456
17162,27855.6,1.08245,3.60107,3.26976,2.42558,11.5447,7.16324,0.0,27.1401
17203,28060.6,1.00973,3.60107,3.32959,2.42558,11.7601,7.16324,6.1512e-05,27.2082
17244,28265.7,0.831261,3.60138,3.38279,2.42558,11.9517,7.16324,0.000123072,26.9261
17285,28470.7,0.49688,3.60107,3.42094,2.42558,12.0891,7.16324,-6.15597e-05,26.9872
17326,28675.8,0.255252,3.60107,3.44148,2.42558,12.163,7.16324,-6.15597e-05,26.7935
17367,28880.8,0.150769,3.60107,3.45263,2.42558,12.2032,7.16324,0.0,26.9125
17408,29085.9,0.101144,3.60107,3.45965,2.42558,12.2285,7.16324,0.0,27.0925
17449,29291,0.0735349,3.60107,3.46456,2.42558,12.2461,7.16324,0.0,27.0314
17490,29496,0.0565722,3.60107,3.46822,2.42558,12.2593,7.16324,0.0,27.0381
17555,29671.3,0.121355,3.49366,3.46864,2.43013,12.2608,7.17764,0.00313926,26.8852
17596,29712.4,-0.86266,3.2536,3.47002,2.43749,12.2658,7.20099,-0.0340394,26.8546
17637,29753.5,1.76872,3.73926,3.47148,2.44517,12.2712,7.22553,0.0664169,26.9328
17678,29794.7,-0.000451223,3.40902,3.47282,2.44517,12.2762,7.22554,0.0,26.9497
17719,29835.839,-3.84917,2.5842,3.47424,2.46232,12.2812,7.27386,-0.002277517,27.0415
17760,29876.9,-1.56408,3.00307,3.47424,2.48564,12.2812,7.34024,0.0299768,27.1468
17801,29918.1,-1.51518,3.01292,3.47434,2.50118,12.2816,7.38552,0.0180354,27.0856
17842,29959.3,0.365148,3.41641,3.47995,2.50433,12.3013,7.39533,-0.0434572,26.875
17883,30000.5,-1.91038,2.95014,3.48069,2.51402,12.3039,7.42357,-0.02517562,26.8716
17924,30041.6,-2.23664,2.90459,3.484,2.51912,12.3157,7.43938,-0.0560143,26.9294
17965,30082.8,-0.000270769,3.33762,3.48608,2.52563,12.3232,7.45756,6.15597e-05,26.7935
18006,30123.9,-0.599197,3.20528,3.4861,2.53979,12.3233,7.49861,-0.0137266,26.8955
18047,30165.1,-0.837757,3.16127,3.48926,2.5456,12.3346,7.51666,0.0142806,26.8649
18088,30206.2,-1.76854,2.99415,3.4906,2.54784,12.3393,7.52379,-0.0683867,26.967
18129,30247.4,0.384818,3.39394,3.49067,2.55559,12.3396,7.54787,0.0709104,27.0248
18170,30288.5,-1.93004,2.9566,3.49228,2.55806,12.3453,7.55547,-0.0137266,27.0248
18211,30329.7,-0.443466,3.24929,3.49387,2.56248,12.3509,7.56902,-0.0170505,27.1301
18252,30370.8,-1.82249,2.9726,3.49503,2.57037,12.3549,7.59329,-0.0250525,27.0384
18293,30412,-1.52547,3.02554,3.49678,2.57925,12.3611,7.62006,-0.0107719,27.1879
18334,30453.1,0.135791,3.34439,3.49691,2.58836,12.3615,7.64781,0.00043087,27.249
18375,30494.3,-0.599197,3.20343,3.49836,2.594,12.3665,7.66552,0.0196358,27.2185
18416,30535.5,0.135972,3.34993,3.49902,2.59917,12.3687,7.68188,0.0216055,27.0384
18457,30576.6,0.0726326,3.33823,3.49953,2.6033,12.3704,7.69506,0.0243754,26.9942
18498,30617.7,0.0778658,3.333,3.50121,2.61165,12.3763,7.72017,-0.010218,27.1334
18539,30658.9,-0.000270769,3.33146,3.50304,2.61455,12.3827,7.7294,-6.15597e-05,27.1503
18580,30700,-1.27175,3.0717,3.50304,2.61979,12.3827,7.74498,0.0115106,27.0314
18621,30741.1,-1.45689,3.04831,3.50484,2.62269,12.389,7.754,-0.0438265,26.9566
18662,30782.2,1.04726,3.52905,3.50587,2.63017,12.3925,7.77723,0.003570175,26.9125
18703,30823.3,-0.000451223,3.32685,3.50762,2.63485,12.3987,7.79077,0.000184679,26.943
18744,30864.5,0.160875,3.35424,3.50781,2.64015,12.3993,7.80731,0.0170505,26.8988
18785,30905.7,-2.12493,2.91597,3.50849,2.64273,12.4017,7.81543,-0.0822979,26.8104
18826,30946.8,-0.000270769,3.32715,3.51088,2.65109,12.4102,7.84073,-0.0321312,26.9633
18867,30987.987,0.08273802,3.33362,3.51093,2.65578,12.4104,7.8549,0.0798357,26.8308
18909,31028.3,-0.000451223,3.33085,3.51178,2.65579,12.4133,7.85491,0.0,27.0109
18950,31069.5,-0.828374,3.1545,3.51322,2.66569,12.4183,7.88458,0.0445652,27.1162
18991,31110.7,-0.745545,3.17019,3.51337,2.67294,12.4187,7.90728,0.003816366,27.0551
19032,31151.9,-0.000451223,3.32869,3.51608,2.67536,12.4286,7.91486,0.0,26.9633
19073,31193,0.589633,3.43087,3.5168,2.68261,12.4311,7.93588,0.0139728,26.8546
19114,31234.1,-3.84935,2.53772,3.51747,2.7068,12.4335,8.00241,-0.0577993,26.7935
19155,31275.3,-0.351073,3.21943,3.51752,2.72315,12.4336,8.0501,0.00086174,26.8377
19196,31316.5,0.75529,3.44872,3.51946,2.73444,12.4403,8.08239,0.000307798,26.9125
19237,31357.8,-1.60811,3.01384,3.52393,2.73515,12.456,8.08462,-0.061985,26.8819
19278,31398.9,1.31091,3.56537,3.52634,2.74812,12.4646,8.12278,-0.02259035,26.8071
19319,31440,-0.000451223,3.31392,3.52933,2.75582,12.4752,8.14447,6.15597e-05,26.8207
19360,31481.17,0.053324,3.30315,3.52934,2.76764,12.4753,8.17784,0.0437035,26.7765
19401,31522.3,-0.351073,3.24713,3.53251,2.77075,12.4865,8.18774,0.000738668,26.9397
19442,31563.5,-0.000270769,3.313,3.53385,2.77735,12.4912,8.20818,6.15597e-05,26.8649
19483,31604.6,-1.20805,3.07571,3.5339,2.78208,12.4914,8.22277,-0.0197588,26.9091
19524,31645.8,-0.000451223,3.31423,3.53554,2.78578,12.4972,8.2342,0.000184679,26.9397
19565,31687.1,-0.000451223,3.30992,3.53713,2.7926,12.5028,8.25499,-0.000123119,27.0008
19606,31728.2,1.05737,3.50689,3.53778,2.79798,12.505,8.27152,0.0278225,26.9125
19647,31769.4,-0.000451223,3.30623,3.54004,2.80536,12.5128,8.2937,-0.0190818,26.8683
19688,31810.6,-2.45571,2.82149,3.5401,2.81486,12.513,8.32231,-0.0730032,26.8546
19729,31851.8,-1.05232,3.09971,3.54162,2.82003,12.5182,8.33809,-0.0320697,26.943
19770,31893,0.0780462,3.30746,3.54216,2.8278,12.52,8.36221,0.014219,26.9872
19811,31934.1,-0.969669,3.10802,3.54277,2.83196,12.5221,8.37534,-0.0158195,26.9872
19852,31975.4,-1.51067,3.00061,3.54436,2.83764,12.5276,8.39256,0.0384714,26.8819
19893,32016.5,0.126769,3.313,3.54506,2.84474,12.53,8.4142,0.0379789,26.9872
19934,32057.7,-0.000451223,3.30099,3.54633,2.84474,12.5344,8.41421,0.0,26.9125
19975,32098.9,-0.21483,3.25637,3.54812,2.85212,12.5406,8.43619,-0.00818672,26.8819
20016,32140.2,-0.745545,3.14126,3.54812,2.85972,12.5406,8.45948,0.005909204,26.9566
20057,32181.4,-2.55333,2.80179,3.54966,2.86204,12.5458,8.46652,-0.0595844,26.9566
20098,32222.5,-1.49569,2.99846,3.55091,2.86898,12.5502,8.48699,-0.00357013,26.8071
20139,32263.7,-0.0491738,3.28561,3.55177,2.87096,12.5531,8.49324,0.0104642,26.8377
20180,32304.8,-0.750057,3.13972,3.55183,2.87899,12.5533,8.51773,0.004370308,26.8377
20221,32346,-0.000451223,3.29515,3.55415,2.88135,12.5616,8.52458,0.0,26.8819
20263,32386.2,-0.000451223,3.29361,3.55504,2.88603,12.5646,8.53852,0.0,26.8377
20304,32427.3,-2.14875,2.87319,3.55573,2.89196,12.5669,8.55622,-0.0607539,26.6881
20345,32468.5,-0.867352,3.11172,3.55654,2.90073,12.5697,8.58269,0.0352705,26.6881
20386,32509.6,-0.000451223,3.29268,3.55934,2.9056,12.5797,8.5978,6.15597e-05,26.7051
20427,32550.8,-3.22047,2.66391,3.55934,2.90863,12.5797,8.60648,-0.05743,26.7663
20468,32592,-0.988978,3.06955,3.56075,2.92853,12.5846,8.66043,-0.005047417,26.7051
20509,32633.1,0.150769,3.28561,3.56078,2.94947,12.5847,8.71992,0.0376096,26.6881
20550,32674.3,-0.988978,3.08032,3.56158,2.96276,12.5874,8.75776,0.0105258,26.7187
20591,32715.5,-0.000270769,3.29453,3.56719,2.96479,12.6069,8.76401,-6.15597e-05,26.7935
20632,32756.7,-0.633483,3.14803,3.56719,2.97706,12.6069,8.79961,0.030654,26.7187
20673,32797.8,-0.307042,3.20928,3.57051,2.98601,12.6186,8.82499,0.0574915,26.8683
20714,32839,-2.10021,2.86458,3.57261,2.99263,12.6261,8.84315,0.06654,26.7629
20755,32880.1,1.28149,3.53182,3.57492,3.00045,12.6342,8.86633,-0.004801178,26.8377
20796,32921.3,0.07245215,3.29053,3.57582,3.00731,12.6373,8.88739,0.0264068,26.8377
20837,32962.5,-0.015068,3.2773,3.57712,3.01076,12.6419,8.89786,0.0227135,27.062
20878,33003.7,-0.000451223,3.28561,3.57881,3.01596,12.6479,8.91391,0.000123072,27.045
20919,33044.9,-0.550114,3.16804,3.57881,3.02219,12.6479,8.93262,0.0129879,27.2251
20960,33086,-0.0100153,3.27791,3.5804,3.02539,12.6534,8.9425,0.0594613,27.045
21001,33127.2,-0.930871,3.09048,3.58156,3.03505,12.6574,8.97141,0.00418568,27.0314
21042,33168.4,0.014346,3.27176,3.58332,3.04305,12.6634,8.99518,0.0179123,26.9872
21083,33209.7,0.009654195,3.27791,3.58367,3.04939,12.6646,9.01447,0.01822,27.0178
21124,33250.9,-0.706748,3.14403,3.5854,3.05507,12.6705,9.03199,-0.0390253,26.9736
21165,33292.2,-0.379946,3.20712,3.5856,3.06012,12.6711,9.04778,-0.0150808,26.8988
21206,33333.3,1.01334,3.47919,3.58718,3.06457,12.6765,9.06171,0.000677061,27.0178
21247,33374.5,-0.881968,3.10802,3.58831,3.07259,12.6804,9.08546,-0.0237599,26.8377
21288,33415.7,-0.000270769,3.28684,3.58961,3.07491,12.6849,9.0927,6.15597e-05,27.0178
21329,33456.8,0.268064,3.32408,3.58974,3.08218,12.6853,9.11426,0.005416775,27.062
21370,33498,-0.389871,3.19912,3.5914,3.0866,12.691,9.1276,0.004739666,26.9872
21411,33539.2,-0.000270769,3.28499,3.59293,3.09053,12.6963,9.13986,6.15597e-05,26.9872
21452,33580.5,-0.638536,3.16065,3.59417,3.09538,12.7006,9.15375,-0.02456007,27.062
21493,33621.6,-0.000270769,3.28253,3.59504,3.10093,12.7035,9.17082,-0.026776,27.062
21534,33662.8,0.126769,3.29484,3.59506,3.10696,12.7036,9.18893,0.0407488,27.062
21575,33704,-0.000451223,3.28284,3.59742,3.11148,12.7119,9.20251,6.1512e-05,27.0314
21616,33745.3,-0.000270769,3.28284,3.59832,3.11617,12.7149,9.21644,-0.0100949,27.0008
21658,33786.3,-0.443285,3.18527,3.59832,3.1206,12.7149,9.2295,0.0850678,27.0145
21699,33827.5,-0.530986,3.16834,3.59978,3.12777,12.7199,9.25102,-0.006894064,27.0145
21740,33868.6,-0.185777,3.2299,3.6,3.13573,12.7207,9.27548,0.0438881,27.0314
21781,33909.7,-0.000270769,3.2853,3.60262,3.13576,12.7301,9.27559,0.000123119,26.9872
21822,33950.9,-3.84935,2.51064,3.60402,3.1493,12.7349,9.31292,-0.002031279,26.9872
21863,33992,-2.55351,2.73962,3.60402,3.17403,12.7349,9.38066,-0.0024622,26.8988
21904,34033.1,-3.84935,2.49279,3.60412,3.18927,12.7352,9.42413,-0.0973787,26.8988
21945,34074.2,0.511136,3.37055,3.60841,3.19493,12.75,9.4407,0.031885,26.96
21986,34115.3,-1.61822,2.94275,3.61046,3.20283,12.7571,9.46302,0.0246217,26.9736
22027,34156.5,-0.000270769,3.27576,3.61377,3.2085,12.7688,9.48014,0.0,26.9125
22068,34197.7,-0.000451223,3.27391,3.61586,3.2162,12.7761,9.50148,6.15597e-05,27.062
22109,34239,-1.06711,3.04831,3.61587,3.2299,12.7761,9.54018,-0.0110797,26.9566
22150,34280.1,-1.28655,3.01323,3.61903,3.23487,12.7872,9.55536,0.000184631,27.0008
22191,34321.3,-0.000451223,3.27391,3.62037,3.23774,12.7919,9.56424,0.000123119,27.2693
22232,34362.5,-1.97371,2.88243,3.62043,3.24478,12.7921,9.58577,-0.0642625,27.4629
22273,34403.6,-1.34014,3.01231,3.62205,3.24717,12.7978,9.59296,-0.028438,27.4935
22314,34444.8,-0.000631677,3.27237,3.62364,3.253,12.8032,9.61041,0.000184631,27.5376
22355,34486,-1.6036,2.95783,3.6248,3.25924,12.8072,9.62938,-0.0302846,27.5818
22396,34527.3,-1.00377,3.06186,3.62655,3.2685,12.8132,9.6566,0.0487509,27.6123
22437,34568.5,-0.0343766,3.24006,3.62661,3.27882,12.8134,9.68733,0.00726342,27.5376
22478,34609.7,-0.6241,3.13264,3.62813,3.28356,12.8186,9.70194,-0.009233141,27.5376
22519,34650.8,-0.419465,3.17235,3.62878,3.28956,12.8207,9.72044,0.008802223,27.4187
22560,34692.1,-0.351254,3.18927,3.6293,3.29331,12.8224,9.73218,-0.0105258,27.3134
22601,34733.3,0.355223,3.31023,3.63088,3.30217,12.8279,9.7583,0.03625536,27.2693
22642,34774.5,-0.000451223,3.26191,3.63284,3.30511,12.8345,9.76741,-0.0480738,27.2387
22683,34815.8,-1.9979,2.86273,3.63284,3.30895,12.8345,9.77852,0.0251757,27.2829
22724,34856.9,-0.175491,3.22621,3.63463,3.31257,12.8406,9.78939,-0.006770945,27.2218
22765,34898.1,0.463135,3.33885,3.6349,3.32073,12.8415,9.81414,0.01348033,27.2965
22806,34939.2,-0.000451223,3.25267,3.6374,3.32541,12.8501,9.82731,-0.0397024,27.3849
22847,34980.4,-0.273117,3.19389,3.63742,3.33058,12.8502,9.84303,-0.004124117,27.249
22888,35021.5,-0.000451223,3.25206,3.63827,3.33244,12.853,9.84887,0.0157578,27.1743
22929,35062.7,1.15427,3.47119,3.64026,3.34161,12.86,9.87592,-0.024991,27.0996
22970,35103.9,-0.272937,3.18681,3.64066,3.34572,12.8614,9.88804,0.0415491,27.0996
23012,35144.3,-0.000451223,3.25391,3.64155,3.3463,12.8644,9.88971,0.0,27.0996
23053,35185.5,-2.008,2.85226,3.643,3.35481,12.8693,9.9146,-0.0714643,27.1301
23094,35226.8,-0.852735,3.07109,3.64315,3.36264,12.8697,9.93826,-0.035209,27.0554
23135,35267.9,-0.000451223,3.2496,3.64586,3.36589,12.8794,9.94813,6.15597e-05,27.1607
23176,35309.1,-2.0708,2.83041,3.646,3.37302,12.8798,9.96825,-0.0572454,27.0996
23217,35350.2,-2.11032,2.79133,3.64727,3.39485,12.8842,10.0266,0.0052321,27.069
23258,35391.3,-0.379946,3.12895,3.64731,3.41299,12.8843,10.0773,0.0122493,27.0554
23299,35432.4,0.769906,3.36101,3.64852,3.42499,12.8883,10.1106,0.0298538,27.0859
23340,35473.654,-0.000270769,3.24098,3.65372,3.42508,12.9062,10.1109,6.15597e-05,27.0859
23381,35514.8,1.60324,3.52782,3.65477,3.43869,12.9098,10.1498,0.0405026,26.9364
23422,35556,-0.000451223,3.22528,3.65913,3.44638,12.925,10.1707,-0.000184679,27.1776
23463,35597.2,-0.0684823,3.18527,3.65913,3.4577,12.925,10.2015,0.0271454,27.1165
23504,35638.4,-0.385359,3.15357,3.66231,3.46081,12.936,10.211,-0.0147114,27.1165
23545,35679.5,-0.000270769,3.22128,3.66364,3.46789,12.9405,10.2323,-6.15597e-05,27.1607
23586,35720.8,-0.701515,3.0794,3.6637,3.47187,12.9407,10.2442,-0.0195742,27.548
23627,35762,-0.000451223,3.22067,3.66533,3.4763,12.9464,10.2575,6.15597e-05,27.7279
23668,35803.2,-9.03152e-05,3.22005,3.66692,3.48313,12.9518,10.2776,-0.0280071,27.789
23709,35844.4,0.350532,3.27237,3.66706,3.48847,12.9522,10.2935,0.0529366,27.6532
23750,35885.5,0.506444,3.309,3.66955,3.49585,12.9606,10.315,-0.0169274,27.5785
23791,35926.8,-0.56058,3.08771,3.66988,3.50445,12.9617,10.34,-0.00609388,27.5649
23832,35968,0.506444,3.30715,3.67139,3.50997,12.9667,10.3562,-0.012434,27.7416
23873,36009.2,-0.287734,3.1348,3.67192,3.51823,12.9685,10.381,0.0157578,27.711
23914,36050.4,-0.5604,3.08617,3.67257,3.52192,12.9706,10.3923,0.0259143,27.6363
23955,36091.6,-2.53402,2.70269,3.67416,3.52672,12.976,10.4066,-0.0639548,27.6871
23996,36132.7,-0.867352,3.01661,3.67485,3.53491,12.9782,10.4304,0.008063602,27.2862
24037,36173.8,-0.000451223,3.2022,3.67612,3.53525,12.9825,10.4315,6.15597e-05,27.456
24078,36215,-0.000270769,3.19543,3.67791,3.54251,12.9885,10.4523,-6.15597e-05,27.4457
24119,36256.1,-0.618506,3.05539,3.67791,3.54954,12.9885,10.4731,0.009171533,27.1638
24160,36297.3,-1.02814,2.99476,3.67944,3.55106,12.9936,10.4777,-0.0400102,27.439
24201,36338.5,-1.41828,2.90459,3.6807,3.55821,12.9979,10.4979,-0.0496742,27.4118
24242,36379.6,-0.32202,3.1268,3.68156,3.56131,13.0007,10.5072,-0.012434,27.1741
24283,36420.8,-0.862479,3.004,3.681633,3.56887,13.0009,10.5293,-0.001600409,27.1946
24324,36462,-0.000451223,3.18897,3.68396,3.57177,13.009,10.5375,6.15597e-05,26.8379
24366,36502.2,-0.000451223,3.18589,3.68486,3.57644,13.0119,10.5509,6.15597e-05,26.7801
24407,36543.4,-0.58458,3.06493,3.68555,3.5813,13.0142,10.5649,-0.0163118,26.8108
24448,36584.6,-1.79777,2.81349,3.68637,3.59007,13.0169,10.5903,-0.03594761,26.8108
24489,36625.7,-0.000451223,3.18312,3.68915,3.59602,13.0265,10.6079,-0.000184679,26.7189
24530,36667,-1.76854,2.83564,3.68915,3.59706,13.0265,10.6109,-0.0311464,27.1198
24571,36708.2,-0.618686,2.98891,3.69054,3.61836,13.0312,10.6656,0.0740496,26.9668
24612,36749.3,-0.809246,2.89689,3.69054,3.63947,13.0312,10.722,0.0281302,27.0687
24653,36790.5,-1.23782,2.78856,3.69121,3.65285,13.0333,10.7571,-0.0772504,27.0211
24694,36831.6,-0.000451223,3.0954,3.697,3.65523,13.0521,10.7638,-0.0317619,27.2691
24735,36872.8,-1.42748,2.72054,3.697,3.66691,13.0521,10.7948,-0.0241292,27.0551
24776,36914.1,-2.36331,2.50325,3.7003,3.67565,13.063,10.8171,-0.0502282,26.841
24817,36955.3,-3.84935,2.19764,3.70239,3.6811,13.0698,10.8307,-0.0501666,26.7935
24858,36996.4,1.43253,3.20312,3.70364,3.69095,13.0737,10.8557,0.0214209,26.7629
24899,37037.6,-0.614175,2.74885,3.70556,3.69754,13.0798,10.8734,-0.0108951,26.7935
24940,37078.9,-0.609122,2.74177,3.70689,3.70105,13.084,10.8826,0.0182816,26.7323
24981,37120,-0.000451223,2.8378,3.70857,3.70647,13.0891,10.8969,-0.000677109,26.8377
25022,37161.2,-0.73562,2.5845,3.70857,3.71218,13.0891,10.9112,0.0354552,26.746
25063,37202.3,-1.56932,2.41585,3.71017,3.71534,13.0938,10.9192,-0.0144037,26.6576
25104,37241.9,0.00153377,2.34321,3.71133,3.72435,13.0972,10.94,0.003693247,26.7629