File: Battery Data/RAW/A123_12.csv
,Test_Time(s),Current(A),Voltage(V),Charge_Capacity(Ah),Discharge_Capacity(Ah),Charge_Energy(Wh),Discharge_Energy(Wh),dV/dt(V/s),Temperature (C)_1
1,8.01164,-1.09978,2.92521,0.0,0.001529298,0.0,0.00448285,-0.0012311,31.2364
66,331.455,1.0996,3.04431,0.009172553,0.05450437,0.027013,0.14842,0.002523708,31.4192
107,536.637,1.0996,3.40841,0.0718435,0.05450437,0.232336,0.14842,0.00043087,31.1552
148,741.831,1.09978,3.45826,0.134518,0.05450437,0.448158,0.14842,0.000123072,31.3515
189,947.026,1.09942,3.4872,0.197194,0.05450437,0.66576,0.14842,6.15597e-05,31.5377
230,1152.24,1.0996,3.51151,0.259873,0.05450437,0.885144,0.14842,0.000123119,31.5919
271,1357.45,1.0996,3.52782,0.322552,0.05450437,1.1058,0.14842,6.15597e-05,31.5344
312,1562.67,1.09942,3.53398,0.385232,0.05450437,1.32716,0.14842,-6.15597e-05,31.8017
353,1767.87,1.09978,3.53798,0.447907,0.05450437,1.54878,0.14842,6.15597e-05,32.0113
394,1973.06,1.0996,3.54259,0.510579,0.05450437,1.77064,0.14842,0.0,32.2345
435,2178.28,1.0996,3.54813,0.573261,0.05450437,1.99286,0.14842,0.0,32.292
476,2383.47,1.0996,3.55521,0.635934,0.05450437,2.21546,0.14842,0.0,32.1568
517,2588.68,1.09978,3.56475,0.698614,0.05450437,2.43858,0.14842,6.15597e-05,32.3225
558,2793.86,1.0996,3.57429,0.761285,0.05450437,2.66229,0.14842,0.0,32.292
599,2999.08,1.0996,3.5823,0.823967,0.05450437,2.88659,0.14842,-6.1512e-05,32.1232
640,3204.3,1.09923,3.5943,0.886648,0.05450437,3.1115,0.14842,-6.15597e-05,32.177
681,3406.7,1.00305,3.60107,0.946875,0.05450437,3.32831,0.14842,0.0,32.2411
722,3611.88,0.685634,3.60138,0.996033,0.05450437,3.50534,0.14842,0.0,32.2074
763,3817.05,0.356487,3.60107,1.02486,0.05450437,3.60914,0.14842,0.0,32.1737
804,4022.28,0.203642,3.60138,1.04021,0.05450437,3.66441,0.14842,6.15597e-05,31.9673
845,4227.45,0.133446,3.60107,1.04958,0.05450437,3.69817,0.14842,0.0,31.7034
886,4432.66,0.0955502,3.60107,1.05601,0.05450437,3.72133,0.14842,-6.15597e-05,31.541
927,4637.86,0.0726326,3.60107,1.06076,0.05450437,3.73844,0.14842,0.0,31.6661
968,4843.08,0.0574745,3.60107,1.06445,0.05450437,3.75171,0.14842,0.0,31.5781
1033,5034.62,-0.481361,3.42379,1.06508,0.0563924,3.75399,0.15492,-0.00129266,31.5377
1074,5075.82,-0.000451223,3.46811,1.06615,0.0614577,3.75777,0.171811,6.15597e-05,31.7745
1115,5117.02,-0.96227,3.24436,1.06615,0.0669493,3.75777,0.190034,-0.001046419,31.6392
1156,5158.22,-0.481361,3.31392,1.06721,0.0718547,3.7615,0.2062687,-0.00036931,31.5784
1197,5199.41,-0.000451223,3.38871,1.06828,0.0769744,3.7652,0.222903,6.15597e-05,31.6088
1238,5240.62,-0.481361,3.28745,1.06828,0.0812709,3.7652,0.237061,-0.000184631,31.7137
1279,5281.78,0.962812,3.49612,1.06969,0.106392,3.77011,0.30812,0.00141573,31.7137
1320,5323,1.92499,3.68417,1.07389,0.114943,3.7854,0.335151,0.00135417,31.7137
1361,5364.19,-0.000451223,3.34993,1.07468,0.114947,3.78834,0.335164,-6.15597e-05,31.6832
1403,5404.68,-0.481361,3.25883,1.07468,0.118049,3.78834,0.345282,-6.1512e-05,31.8321
1444,5445.88,-0.481361,3.26252,1.07575,0.121952,3.792,0.357716,-0.0167428,31.7137
1485,5487.07,0.48118,3.42441,1.07649,0.12832,3.79453,0.378173,0.000553989,31.8049
1526,5528.24,-0.481541,3.25144,1.07682,0.133498,3.79564,0.395022,-0.000123119,31.5377
1567,5569.43,-0.000270769,3.34193,1.07788,0.137413,3.79929,0.407471,0.000184631,31.6154
1608,5610.6,-3.84935,2.64052,1.07788,0.14768,3.79929,0.437581,-0.00178504,31.7981
1649,5651.8,-0.96227,3.14865,1.08002,0.168499,3.80672,0.497256,-6.15597e-05,31.7236
1690,5692.98,-0.000451223,3.33639,1.0843,0.175367,3.82242,0.51888,-6.15597e-05,31.6797
1732,5733.53,-0.000451223,3.33823,1.0843,0.175371,3.82242,0.518894,-0.000123072,31.7541
1773,5774.71,-0.96227,3.16065,1.0843,0.180235,3.82242,0.534606,-0.00043087,31.7812
1814,5815.9,-0.481361,3.24929,1.08537,0.183584,3.82607,0.545302,-6.15597e-05,31.7778
1855,5857.09,-0.481361,3.24713,1.08644,0.189623,3.82971,0.564631,-6.15597e-05,31.5985
1896,5898.3,-0.962451,3.15727,1.08644,0.195638,3.82971,0.584064,-0.00036931,31.4937
1937,5939.49,-0.481541,3.24713,1.08751,0.199037,3.83335,0.594903,-0.000123119,31.6865
1978,5980.68,-2.40572,2.8775,1.08751,0.215319,3.83335,0.641055,-0.000369358,31.6121
2019,6021.88,-0.96227,3.14249,1.08964,0.231348,3.84075,0.688218,0.0,31.7305
2060,6063.04,-0.000451223,3.33208,1.09391,0.235797,3.85637,0.702202,0.0,31.7745
2102,6103.59,-0.481361,3.25175,1.09391,0.23581,3.85637,0.702245,-0.0166196,31.8489
2143,6144.79,0.481,3.40687,1.09408,0.242747,3.85696,0.724476,0.0505975,31.8049
2184,6185.97,-0.481361,3.24406,1.09498,0.245216,3.86003,0.73249,-6.15597e-05,31.9098
2225,6227.14,-0.481361,3.24221,1.09604,0.251258,3.86367,0.751804,-6.15597e-05,31.8354
2266,6268.33,0.481,3.40379,1.09615,0.258261,3.86403,0.774217,0.0505975,31.6425
2307,6309.51,-0.481541,3.24221,1.09711,0.260669,3.8673,0.782028,-6.15597e-05,31.6899
2348,6350.7,-2.40554,2.86765,1.09711,0.281754,3.8673,0.841453,-0.000246239,31.7372
2389,6391.86,-0.96227,3.13695,1.09924,0.294167,3.87468,0.87879,6.1512e-05,31.6492
2430,6433.04,-0.000451223,3.329,1.10351,0.296223,3.89028,0.885238,6.15597e-05,31.7236
2472,6473.61,-0.481361,3.24406,1.10351,0.29744,3.89028,0.88919,-0.000184679,31.8285
2513,6514.83,-0.000270769,3.32746,1.10458,0.30318,3.89391,0.907512,-0.0166196,31.7812
2554,6556.03,-0.96227,3.15296,1.10458,0.307329,3.89391,0.920882,-0.000492477,31.7034
2595,6597.2,-0.481361,3.2379,1.10564,0.312902,3.89754,0.938734,0.0,31.761
2636,6638.39,-0.000270769,3.32469,1.10671,0.318694,3.90118,0.9572,-0.016558,31.6561
2677,6679.59,-0.481361,3.23759,1.10671,0.322311,3.90118,0.96892,-0.000123072,31.5952
2718,6720.77,0.962812,3.44626,1.10677,0.348095,3.90139,1.04122,0.117507,31.5648
2759,6761.94,1.92481,3.63985,1.10961,0.356636,3.91135,1.06796,0.101934,31.7137
2800,6803.12,-0.000451223,3.32469,1.11315,0.356639,3.92425,1.06798,0.000123119,31.7137
2842,6843.68,-0.481361,3.23729,1.11315,0.359065,3.92425,1.07583,-0.000123072,31.7577
2883,6884.84,-0.000270769,3.32408,1.11421,0.363591,3.92788,1.0902,6.15597e-05,31.8017
2924,6926.04,0.481,3.3961,1.11428,0.370008,3.9281,1.11068,0.0502897,31.8625
2965,6967.22,-0.481361,3.23144,1.11528,0.374512,3.93151,1.12525,-6.15597e-05,31.7881
3006,7008.4,-0.000270769,3.32069,1.11635,0.379098,3.93513,1.13978,6.15597e-05,31.6392
3047,7049.59,-3.84935,2.64606,1.11635,0.383964,3.93513,1.15549,-0.116953,31.6865
3088,7090.79,-0.962451,3.12403,1.11848,0.408835,3.94249,1.22466,-0.0669094,31.5817
3129,7131.98,-0.000451223,3.30992,1.12275,0.417054,3.95801,1.25032,-0.0673402,31.5072
3171,7172.53,-0.000451223,3.31392,1.12275,0.417058,3.95801,1.25033,6.15597e-05,31.5377
3212,7213.7,-0.481361,3.22405,1.12275,0.420693,3.95801,1.26206,-6.15597e-05,31.4632
3253,7254.92,-0.481361,3.22682,1.12381,0.424602,3.96163,1.27438,-0.000246191,31.5545
3294,7296.09,-0.481361,3.22374,1.12488,0.430637,3.96525,1.29355,-0.033547,31.6932
3335,7337.28,-0.481541,3.21697,1.12488,0.436144,3.96525,1.31128,-6.15597e-05,31.7541
3376,7378.42,-0.4811804,3.22159,1.12595,0.440038,3.96886,1.32353,-0.000184631,31.5917
3417,7419.59,-2.40572,2.85288,1.12595,0.453567,3.96886,1.36164,0.0497973,31.6357
3458,7460.77,-0.96227,3.11295,1.12808,0.471645,3.97621,1.41384,0.0,31.771
3499,7501.95,-0.000451223,3.29976,1.13236,0.477468,3.99171,1.43197,0.0,31.8725
3541,7542.58,-0.000451223,3.30223,1.13236,0.477472,3.99171,1.43198,0.0,31.6154
3582,7583.75,-0.96227,3.12187,1.13236,0.483409,3.99171,1.45086,-0.000123119,31.673
3623,7624.92,-0.481361,3.21082,1.13343,0.486216,3.99532,1.45979,-6.15597e-05,31.6425
3664,7666.1,-0.481361,3.20836,1.1345,0.492248,3.99893,1.47887,-6.1512e-05,31.5817
3705,7707.3,-0.962451,3.11787,1.1345,0.498792,3.99893,1.49967,-0.000184631,31.5817
3746,7748.47,-0.481361,3.20805,1.13556,0.501662,4.00254,1.50877,-0.000123072,31.5512
3787,7789.66,-2.40572,2.84149,1.13556,0.520047,4.00254,1.56012,-0.000246191,31.5817
3828,7830.84,-0.96227,3.10741,1.1377,0.53449,4.00987,1.60251,6.15597e-05,31.4464
3869,7872,-0.000451223,3.29484,1.14198,0.537886,4.0254,1.61306,-6.15597e-05,31.6697
3911,7912.63,-0.481361,3.21051,1.14198,0.538434,4.0254,1.61482,-0.000246191,31.6257
3952,7953.8,0.481,3.37363,1.14268,0.544838,4.02775,1.63507,0.000553989,31.6257
3993,7994.97,-0.481361,3.20435,1.14305,0.547835,4.02901,1.64468,0.0,31.4937
4034,8036.16,-0.481361,3.20282,1.14412,0.553877,4.0326,1.66376,0.0,31.5985
4075,8077.35,0.48118,3.37086,1.14476,0.560347,4.03475,1.6842,0.000553989,31.4801
4116,8118.53,-0.481361,3.20282,1.14518,0.563287,4.03619,1.69362,0.0,31.6628
4157,8159.73,-2.40572,2.83257,1.14518,0.586531,4.03619,1.7582,-0.000123119,31.6323
4198,8200.9,-0.962451,3.1031,1.14732,0.59733,4.04352,1.79084,-6.15597e-05,31.4801
4239,8242.08,-0.000451223,3.29268,1.15158,0.598314,4.05896,1.79389,6.15597e-05,31.3448
4281,8282.7,-0.481361,3.20497,1.15158,0.600072,4.05896,1.79953,-0.000184631,31.6121
4322,8323.89,-0.000451223,3.28961,1.15265,0.605276,4.06255,1.81592,0.000123119,31.6392
4363,8365.08,-0.96227,3.11295,1.15265,0.610488,4.06255,1.83244,-0.000307751,31.4599
4404,8406.28,-0.481361,3.19974,1.15372,0.615531,4.06614,1.84848,-6.15597e-05,31.4024
4445,8447.47,-0.000270769,3.28838,1.15478,0.620788,4.06973,1.86501,0.000123072,31.4497
4486,8488.68,-0.481541,3.19943,1.15478,0.624948,4.06973,1.87833,-0.000123119,31.6797
4527,8529.87,0.962812,3.42995,1.15593,0.650195,4.07364,1.94803,0.001600409,31.5037
4568,8571.06,1.92481,3.62108,1.15985,0.658743,4.08765,1.97452,0.001354218,31.5376
4609,8612.23,-0.000451223,3.29084,1.1612,0.658747,4.09255,1.97453,6.1512e-05,31.3786
4651,8652.73,-0.481541,3.20097,1.1612,0.661709,4.09255,1.98402,-0.000123119,31.6188
4692,8693.91,-0.000631677,3.28899,1.16227,0.665703,4.09615,1.99652,6.15597e-05,31.6798
4733,8735.1,0.481,3.36747,1.16288,0.672119,4.09818,2.01677,0.000677109,31.6528
4774,8776.27,-0.481541,3.19666,1.16334,0.677158,4.09975,2.03289,0.0,31.6258
4815,8817.47,-0.000451223,3.28745,1.16441,0.681209,4.10335,2.04556,0.000123119,31.5413
4856,8858.69,-3.84917,2.58943,1.16441,0.690412,4.10335,2.07236,-0.001969719,31.5413
4897,8899.87,-0.96227,3.09386,1.16654,0.712041,4.11063,2.13285,-6.15597e-05,31.7547
4938,8941.06,-0.000451223,3.28376,1.17081,0.719182,4.12604,2.154945,-6.15597e-05,31.7547
4980,8981.59,-0.000270769,3.28838,1.17081,0.719187,4.12604,2.15496,6.15597e-05,31.7512
5021,9022.79,-0.96209,3.11079,1.17081,0.723786,4.12604,2.16961,-0.000430918,31.7781
5062,9063.99,-0.481541,3.19943,1.17187,0.727267,4.12963,2.18053,-0.000123119,31.7576
5103,9105.18,-0.481541,3.19728,1.17294,0.733305,4.13323,2.19955,-0.000184631,31.7677
5144,9146.36,-0.96227,3.10741,1.17294,0.739181,4.13323,2.21826,-0.00043087,31.8252
5185,9187.51,-0.481541,3.19789,1.17401,0.742704,4.13683,2.2293,-0.000123072,31.7744
5226,9228.7,-2.40572,2.82487,1.17401,0.758425,4.13683,2.27309,-0.000369358,31.8454
5267,9269.91,-0.962451,3.08832,1.17615,0.774867,4.14413,2.32047,0.0,31.7236
5308,9311.1,-0.000451223,3.28037,1.18043,0.779595,4.15957,2.33507,6.1512e-05,31.4834
5350,9351.63,-0.000451223,3.2853,1.18043,0.779599,4.15957,2.33509,0.0,31.6019
5391,9392.83,0.481,3.35485,1.18046,0.78655,4.15967,2.35701,0.0502282,31.8285
5432,9434.03,-0.481361,3.19451,1.1815,0.788884,4.16316,2.36447,-6.15597e-05,31.7541
5473,9475.23,-0.481361,3.19235,1.18257,0.794927,4.16675,2.38349,-6.1512e-05,31.8285
5514,9516.42,-0.96209,3.0994,1.18257,0.802017,4.16675,2.40583,-0.000184631,31.6357
5555,9557.59,-0.481361,3.19266,1.18363,0.804335,4.17033,2.41324,-6.15597e-05,31.6661
5596,9598.8,-2.40572,2.81256,1.18363,0.82492,4.17033,2.47018,-0.00036931,31.6526
5637,9640.01,-0.96209,3.08155,1.18577,0.837732,4.1776,2.50788,-6.15597e-05,31.4293
5678,9681.18,-0.000451223,3.27606,1.19005,0.84003,4.19304,2.51497,6.15597e-05,31.4597
5720,9721.67,-0.481541,3.19235,1.19005,0.841112,4.19304,2.51842,-0.000184631,31.7879
5761,9762.86,-0.000451223,3.27545,1.19112,0.846987,4.19662,2.53687,-0.016435,31.9097
5802,9804.04,-0.96227,3.10125,1.19112,0.85085,4.19662,2.54914,-0.0172967,31.8657
5843,9845.2,-0.481541,3.18496,1.19218,0.856564,4.20019,2.56712,-6.15597e-05,31.8082
5884,9886.38,-0.000451223,3.27114,1.19325,0.862498,4.20377,2.58573,-0.0164965,31.9435
5925,9927.56,-0.481361,3.18404,1.19325,0.865972,4.20377,2.5968,-0.000123072,31.8928
5966,9968.73,-2.40572,2.79871,1.19325,0.891319,4.20377,2.66645,-0.000307751,31.9807
6007,10009.9,1.92481,3.57799,1.19555,0.900458,4.21162,2.69438,0.101195,31.8285
6048,10051.1,-0.000270769,3.26714,1.19966,0.900462,4.22639,2.69439,0.000123072,31.8725
6090,10091.7,-0.481541,3.17881,1.19966,0.902752,4.22639,2.70167,-0.000123072,32.0957
6131,10132.9,-0.000270769,3.26529,1.20073,0.907416,4.22996,2.71621,0.000184679,31.9942
6172,10174.1,-0.962451,3.08248,1.20073,0.913705,4.22996,2.73591,-0.00036931,31.8758
6213,10215.3,-0.481361,3.1705,1.2018,0.918203,4.23353,2.75017,0.0,31.9063
6254,10256.5,-0.000451223,3.25883,1.20286,0.922928,4.23708,2.76486,6.15597e-05,31.8758
6295,10297.7,-0.481361,3.16804,1.20286,0.92762,4.23708,2.77974,-6.15597e-05,31.9503
6336,10338.9,-0.96209,3.06524,1.205,0.952411,4.24431,2.84703,-0.0662322,31.9807
6377,10380.1,-0.000451223,3.25237,1.20927,0.960897,4.25962,2.873,-0.067094,31.8758
6419,10420.6,-0.000270769,3.25483,1.20927,0.960902,4.25962,2.87302,6.15597e-05,31.9063
6460,10461.8,-0.481541,3.16281,1.20927,0.964402,4.25962,2.8841,-0.000123119,32.0855
6501,10503,-0.481361,3.16496,1.21034,0.968306,4.26317,2.89616,-0.000307751,32.0585
6542,10544.2,-0.4811804,3.1625,1.21141,0.974349,4.26672,2.91498,-0.0332392,32.0754
6583,10585.3,-0.481361,3.1548,1.21141,0.979855,4.26672,2.93236,-6.15597e-05,32.0585
6624,10626.5,-0.481361,3.16034,1.21248,0.983759,4.27028,2.9444,-0.00036931,32.0991
6665,10667.7,-2.40572,2.78455,1.21248,0.996791,4.27028,2.98029,0.0490586,31.9773
6706,10708.9,-0.96227,3.04678,1.21462,1.01524,4.27751,3.03223,-6.1512e-05,31.9165
6747,10750.1,-0.000631677,3.23882,1.21889,1.02132,4.29275,3.05072,0.0,31.9029
6789,10790.6,-0.000631677,3.24313,1.21889,1.02132,4.29275,3.05073,6.1512e-05,32.0382
6830,10831.8,-0.96227,3.05909,1.21889,1.02699,4.29275,3.06844,-0.000307751,32.0247
6871,10873,-0.481361,3.14865,1.21996,1.02993,4.29629,3.07759,-0.000184679,32.072
6912,10914.2,-0.481361,3.14465,1.22103,1.03598,4.29983,3.09631,-0.000184631,31.8792
6953,10955.4,-0.96227,3.05139,1.22103,1.04239,4.29983,3.11632,-0.000246191,32.0111
6994,10996.6,-0.481361,3.14311,1.2221,1.04539,4.30336,3.1256,-0.000184679,31.9503
7035,11037.8,-2.40572,2.76178,1.2221,1.06327,4.30336,3.17424,-0.00043087,31.9942
7076,11079,-0.96227,3.02739,1.22423,1.0781,4.31052,3.21645,0.0,31.9029
7117,11120.167,-0.000451223,3.22313,1.22849,1.08175,4.32565,3.2275,0.0,31.7541
7159,11160.7,-0.481361,3.14003,1.22849,1.08216,4.32565,3.2288,-0.000369358,31.8725
7200,11201.9,0.481,3.29761,1.22906,1.08871,4.32752,3.24902,0.000800228,31.9333
7241,11243.1,-0.481361,3.12803,1.22956,1.09158,4.32917,3.25801,-0.000123119,31.9333
7282,11284.3,-0.481541,3.12403,1.23063,1.09762,4.33268,3.27662,-0.000184679,31.8285
7323,11325.5,0.481,3.28961,1.23114,1.10422,4.33437,3.29693,0.00086174,31.8285
7364,11366.7,-0.481541,3.12156,1.23169,1.10703,4.33619,3.30573,-0.000184679,31.8285
7405,11407.9,-2.40554,2.73162,1.23169,1.12979,4.33619,3.36685,-0.000307798,31.9165
7446,11449.1,-0.962451,3.00276,1.23383,1.14097,4.34331,3.39939,-6.15597e-05,31.8556
7487,11490.3,-0.000451223,3.2022,1.2381,1.14218,4.35838,3.40303,6.15597e-05,31.7338
7529,11530.8,-0.481361,3.11325,1.2381,1.1438,4.35838,3.40808,-0.000184679,32.045
7570,11571.9,-0.000451223,3.19543,1.23917,1.14914,4.36187,3.42438,0.000123072,32.0011
7611,11613.1,-0.962451,3.01323,1.23917,1.15408,4.36187,3.43956,-0.00049243,31.8827
7652,11654.3,-0.481361,3.0991,1.24024,1.15925,4.36537,3.45547,-6.15597e-05,31.8387
7693,11695.5,-0.000270769,3.18866,1.24131,1.16464,4.36887,3.4719,0.000184679,31.8218
7734,11736.7,-0.481361,3.09694,1.24131,1.16866,4.36887,3.48435,-6.1512e-05,31.8962
7775,11777.9,0.962631,3.31115,1.24217,1.19403,4.37171,3.55148,0.00320082,31.9098
7816,11819.1,1.92481,3.51028,1.24582,1.20258,4.38424,3.57697,0.002585268,31.9538
7857,11860.2,-0.000270769,3.18712,1.24772,1.20258,4.39095,3.57698,-6.1512e-05,31.9978
7899,11900.8,-0.481541,3.09171,1.24772,1.20541,4.39095,3.58575,-0.000307751,32.3089
7940,11942,-0.000451223,3.18035,1.24879,1.20954,4.39442,3.59821,0.000123119,32.3833
7981,11983.2,0.481,3.2496,1.24926,1.21595,4.39595,3.61772,0.00116954,32.2312
8022,12024.3,-0.481541,3.07386,1.24986,1.22086,4.39789,3.63282,-0.000123119,32.2312
8063,12065.5,-0.000270769,3.16311,1.25093,1.22504,4.40135,3.64539,0.000184679,32.096
8104,12106.7,-3.84953,2.43647,1.25093,1.23316,4.40135,3.66826,-0.005293655,32.14
8145,12147.9,-0.962451,2.87042,1.25307,1.25559,4.40821,3.72618,-0.000984859,32.0488
8186,12189.1,-0.000451223,3.05816,1.25734,1.26299,4.42265,3.7473,-0.000184679,32.0184
8228,12229.6,-0.000270769,3.06401,1.25734,1.26299,4.42265,3.74731,0.000123119,32.0488
8269,12270.8,-0.96227,2.86273,1.25734,1.26732,4.42265,3.76009,-0.0181585,31.944
8310,12312,-0.481361,2.94244,1.25842,1.27092,4.42598,3.77044,-0.000553989,31.8424
8351,12353.1,-0.481361,2.91351,1.25949,1.27695,4.42928,3.78779,-0.000677061,31.9065
8392,12394.3,-0.96227,2.78517,1.25949,1.28268,4.42928,3.80433,-0.0184047,31.761
8433,12435.5,-0.481361,2.86334,1.26056,1.28636,4.43252,3.81461,-0.000677061,31.6763
8474,12476.7,-2.40572,2.30228,1.26056,1.30151,4.43252,3.85037,-0.005355215,31.9198
8516,12916.3,1.09942,3.30099,1.29877,1.31115,4.55343,3.87146,0.000738668,31.3988
8557,13121.5,1.09942,3.44288,1.36145,1.31115,4.76633,3.87146,6.15597e-05,31.6392
8598,13326.7,1.0996,3.46904,1.42413,1.31115,4.98291,3.87146,0.000123119,31.6463
8639,13531.9,1.0996,3.49766,1.48681,1.31115,5.20126,3.87146,6.1512e-05,31.5917
8680,13737.1,1.0996,3.51736,1.54948,1.31115,5.42112,3.87146,0.000123119,31.9672
8721,13942.3,1.09942,3.52751,1.61216,1.31115,5.64197,3.87146,0.0,32.0586
8762,14147.5,1.0996,3.53182,1.67483,1.31115,5.8632,3.87146,6.15597e-05,32.0488
8803,14352.7,1.0996,3.53552,1.7375,1.31115,6.08464,3.87146,0.0,32.1297
8844,14557.9,1.09942,3.54075,1.80018,1.31115,6.30639,3.87146,0.0,32.3087
8885,14763.1,1.0996,3.5469,1.86285,1.31115,6.52848,3.87146,0.0,32.4542
8926,14968.3,1.09942,3.5549,1.92552,1.31115,6.75102,3.87146,0.0,32.5051
8967,15173.5,1.0996,3.56414,1.98819,1.31115,6.97411,3.87146,-6.15597e-05,32.5455
9008,15378.7,1.0996,3.57214,2.05087,1.31115,7.19776,3.87146,6.15597e-05,32.2005
9049,15584,1.09942,3.57953,2.11355,1.31115,7.42189,3.87146,-0.000123072,31.9773
9090,15789.2,1.09942,3.59399,2.17622,1.31115,7.64661,3.87146,6.15597e-05,32.2276
9131,15991.8,0.93448,3.60076,2.23516,1.31115,7.8588,3.87146,-6.1512e-05,32.133
9172,16197,0.512399,3.60107,2.27683,1.31115,8.00886,3.87146,-6.15597e-05,31.9505
9213,16402.2,0.240094,3.60107,2.29704,1.31115,8.08165,3.87146,0.0,31.6594
9254,16607.4,0.137416,3.60138,2.30737,1.31115,8.11885,3.87146,6.15597e-05,31.6492
9295,16812.6,0.0908584,3.60107,2.31373,1.31115,8.14173,3.87146,0.0,31.6797
9336,17017.8,0.065234,3.60138,2.3181,1.31115,8.1575,3.87146,6.15597e-05,31.6154
9401,17272.1,-1.96902,3.15634,2.32009,1.3133,8.16465,3.87837,0.00036931,31.5648
9442,17313.3,-2.01125,3.09017,2.3211,1.31935,8.16823,3.89784,-0.000677109,31.6392
9483,17354.4,0.482985,3.45642,2.32126,1.33172,8.16879,3.93617,0.0461041,31.4431
9524,17395.6,-2.26009,2.99692,2.32358,1.33285,8.17679,3.93967,-0.07712736,31.5615
9565,17436.8,-0.291704,3.31023,2.3237,1.34298,8.17722,3.97094,-0.002523708,31.5479
9606,17478,-0.21465,3.309,2.32404,1.35128,8.17836,3.9972,-0.00357013,31.5784
9647,17519.2,-0.466022,3.26498,2.3242,1.35687,8.17892,4.01523,0.0128033,31.5208
9688,17560.4,-0.433541,3.25729,2.32436,1.36602,8.17945,4.04352,-0.0342856,31.4768
9729,17601.6,0.826749,3.47889,2.32518,1.37593,8.18224,4.07392,0.0166812,31.4937
9770,17642.9,-0.80311,3.19143,2.32536,1.38329,8.18288,4.09723,-0.0171736,31.5241
9811,17684.1,-0.279613,3.28284,2.32549,1.39059,8.1833,4.12037,-0.0115722,31.5681
9852,17725.277,-0.103129,3.31423,2.32575,1.39541,8.18421,4.13589,0.0128648,31.4328
9893,17766.5,0.199672,3.3724,2.32774,1.39745,8.19099,4.14223,0.047766,31.5952
9934,17807.7,-1.6249,3.04924,2.32887,1.40281,8.19482,4.15896,-0.0164965,31.5208
9975,17848.8,0.186138,3.36716,2.33067,1.40984,8.20098,4.17933,-0.007324934,31.7137
10017,17889.1,-0.188123,3.29853,2.33092,1.41503,8.20182,4.19525,0.0,31.6528
10058,17930.4,-0.191552,3.29115,2.33175,1.42321,8.20465,4.22009,-0.004431915,31.5919
10099,17971.6,0.487135,3.41733,2.33325,1.43043,8.20972,4.24188,0.008802271,31.4702
10140,18012.8,-0.343855,3.2616,2.3342,1.43805,8.21294,4.26466,0.0218517,31.636
10181,18054,-1.01388,3.14434,2.33451,1.44565,8.214008,4.28841,-0.007201815,31.5615
10222,18095.2,-0.683469,3.20497,2.33474,1.45246,8.21477,4.31004,0.0104642,31.4904
10263,18136.4,-0.283764,3.27576,2.33482,1.45769,8.21504,4.3268,0.006155395,31.5039
10304,18177.6,-1.70989,3.016,2.335,1.46871,8.21567,4.36053,-0.0190818,31.6392
10345,18218.8,0.0444818,3.32962,2.33598,1.47709,8.219,4.38617,0.0180354,31.5952
10386,18260,-0.73165,3.1902,2.33599,1.48513,8.21901,4.41158,-0.01132598,31.6832
10427,18301.2,-0.721545,3.19789,2.33613,1.49099,8.21949,4.43015,-0.0197588,31.5784
10468,18342.4,0.476308,3.4161,2.33778,1.49417,8.22512,4.44036,-0.0071403,31.6968
10509,18383.6,0.279072,3.37824,2.339,1.49804,8.22925,4.45239,-0.0024622,31.636
10550,18424.8,-0.000270769,3.32992,2.33995,1.50221,8.23246,4.46529,0.000123119,31.6191
10592,18465,-0.0017144,3.32962,2.34131,1.5086,8.23712,4.48368,6.15597e-05,31.6327
10633,18506.2,-0.000451223,3.33023,2.34233,1.51382,8.24059,4.49967,6.15597e-05,31.5887
10674,18547.5,-2.00331,2.96245,2.34244,1.52543,8.24094,4.53489,-0.002708387,31.6327
10715,18588.6,-0.000451223,3.33023,2.34481,1.52919,8.24896,4.54604,-0.000123072,31.6023
10756,18629.8,0.114859,3.3367,2.34493,1.53965,8.24937,4.57766,0.00406256,31.4974
10797,18671,-1.19903,3.10402,2.34512,1.54751,8.25002,4.60225,-0.0111413,31.5142
10838,18712.2,0.024271,3.32161,2.34543,1.55323,8.25104,4.62049,0.0169889,31.5648
10879,18753.4,-1.07848,3.12433,2.34543,1.56032,8.25106,4.64294,-0.00818672,31.4937
10920,18794.5,0.03636137,3.30869,2.34581,1.57296,8.25235,4.68088,0.0299153,31.5714
10961,18835.7,-0.590535,3.20743,2.34659,1.57908,8.25501,4.70017,0.0276994,31.5748
11002,18876.9,-0.009834825,3.30838,2.34664,1.58697,8.25516,4.72501,0.0381636,31.4293
11043,18918.2,-0.825126,3.17235,2.34699,1.59156,8.25636,4.73965,-0.0126801,31.612
11084,18959.4,-0.0017144,3.32808,2.34891,1.59293,8.26287,4.74403,6.1512e-05,31.6154
11125,19000.6,0.336095,3.38009,2.34996,1.59875,8.26643,4.76208,0.009540891,31.5714
11166,19041.8,0.378863,3.37363,2.35068,1.60736,8.26884,4.78721,0.01255703,31.5749
11208,19082.1,-0.492729,3.22159,2.35194,1.61221,8.27315,4.80197,0.0194511,31.5309
11249,19123.3,-1.71855,3.00307,2.35295,1.61917,8.27657,4.82296,-0.0195127,31.5749
11290,19164.5,0.301809,3.35916,2.3537,1.628,8.27908,4.84956,0.00418568,31.5309
11331,19205.7,-1.11133,3.10771,2.35543,1.63351,8.28493,4.86561,0.022652,31.399
11372,19246.9,-1.17755,3.0994,2.35574,1.64048,8.28598,4.88732,-0.05823021,31.4429
11413,19288.1,-0.679499,3.18373,2.35591,1.64851,8.28654,4.91248,-0.009664011,31.338
11454,19329.3,-0.105295,3.28345,2.35605,1.65416,8.28702,4.93041,0.0128033,31.426
11495,19370.5,-0.623919,3.1865,2.35623,1.66337,8.28763,4.95851,-0.0247447,31.7677
11536,19411.7,-1.52186,3.03016,2.35717,1.67319,8.29079,4.98823,-0.0248679,31.5105
11577,19452.9,-1.00648,3.11664,2.35721,1.68076,8.29093,5.01194,-0.0212977,31.612
11618,19494.1,-0.655318,3.17912,2.35734,1.68759,8.29135,5.03332,-0.020436,31.4157
11659,19535.3,0.521061,3.3884,2.35804,1.69177,8.2937,5.04661,0.004308796,31.4293
11700,19576.5,-1.01478,3.12372,2.35991,1.69411,8.30001,5.05386,-0.0401949,31.4293
11741,19617.7,0.139942,3.32161,2.36115,1.69981,8.30418,5.07131,-0.007509613,31.3548
11782,19658.9,-0.000270769,3.29822,2.36254,1.7062,8.30888,5.0895,0.000184679,31.2499
11824,19699.2,0.147341,3.32315,2.36352,1.71144,8.31218,5.10538,-0.0128033,31.4293
11865,19740.4,-0.243523,3.24652,2.36366,1.71991,8.31266,5.13087,-0.0148345,31.4293
11906,19781.6,0.400156,3.36716,2.3658,1.72679,8.31982,5.15124,0.008740711,31.4124
11947,19822.8,-0.689605,3.16065,2.36604,1.73656,8.32062,5.18032,-0.0009233,31.4868
11988,19864,-0.565091,3.18558,2.36635,1.743,8.32166,5.20031,0.0163118,31.3955
12029,19905.2,-0.570505,3.1865,2.36663,1.74967,8.32261,5.22123,0.0165581,31.5274
12070,19946.4,-0.977609,3.11325,2.36666,1.75552,8.32271,5.23972,-0.0212977,31.5106
12111,19987.6,-1.62436,2.99384,2.36704,1.76741,8.32396,5.27524,-0.0614311,31.4192
12152,20028.8,-1.22682,3.06893,2.36782,1.77461,8.32659,5.29737,-0.0376711,31.4937
12193,20070,-0.333389,3.22128,2.36782,1.78308,8.32659,5.32379,0.0179738,31.4632
12234,20111.2,-0.180725,3.25421,2.36821,1.78796,8.3279,5.33912,-0.0092947,31.3719
12275,20152.4,0.0349177,3.3013,2.37012,1.7906,8.33433,5.34748,-0.005601406,31.4464
12316,20193.6,-0.912826,3.1308,2.37092,1.79473,8.33702,5.36019,-0.0322544,31.3415
12357,20234.8,-3.55269,2.66114,2.37178,1.80138,8.33989,5.38009,-0.0664169,31.4159
12399,20275.1,0.0495345,3.28961,2.37314,1.80671,8.34449,5.39524,0.05706067,31.4768
12440,20316.3,-2.04896,2.92644,2.37417,1.81227,8.34792,5.41212,-0.0395177,31.4024
12481,20357.5,-0.718838,3.14403,2.37427,1.82542,8.34827,5.4512,0.0518286,31.4632
12522,20398.7,-0.898029,3.13511,2.37664,1.82578,8.35621,5.45232,-0.0313926,31.4632
12563,20439.8,-0.214289,3.24313,2.37677,1.83674,8.35662,5.48513,0.0113259,31.3888
12604,20481.1,-0.11919,3.25821,2.3771,1.84474,8.35774,5.50985,0.02277503,31.4632
12645,20522.2,-0.747711,3.14988,2.37727,1.85053,8.35828,5.52812,-0.006709385,31.4768
12686,20563.5,-0.227101,3.23236,2.37742,1.85961,8.35882,5.55563,0.0291767,31.4464
12727,20604.7,0.363885,3.33823,2.37795,1.86979,8.36056,5.58632,0.007940483,31.4159
12768,20645.9,-0.302531,3.2222,2.37842,1.87698,8.36215,5.60869,-0.01034112,31.355
12809,20687.1,-0.709996,3.15326,2.37849,1.88431,8.36239,5.63149,-0.0256681,31.3958
12850,20728.3,-0.843171,3.13203,2.37881,1.88913,8.36347,5.64674,-0.0258528,31.5615
12891,20769.5,-0.319133,3.22774,2.38073,1.89132,8.36991,5.65346,0.04567318,31.4126
12932,20810.6,-1.17412,3.07909,2.38192,1.89587,8.37391,5.66748,-0.0416106,31.3855
12973,20851.8,0.406292,3.3527,2.38357,1.90378,8.37944,5.69013,-0.008617592,31.4295
13015,20892.2,-0.646657,3.16742,2.38397,1.90878,8.38079,5.70519,-0.0270838,31.4295
13056,20933.3,0.0637904,3.28222,2.38478,1.91711,8.38349,5.7301,0.00726342,31.4871
13097,20974.6,0.283222,3.32931,2.38608,1.92436,8.38782,5.75158,0.00043087,31.5007
13138,21015.7,-0.968586,3.10125,2.38725,1.93172,8.39175,5.77316,-0.0114491,31.4838
13179,21056.9,-0.808524,3.12987,2.38756,1.93903,8.39279,5.79562,0.00178504,31.4838
13220,21098.1,-0.795712,3.13326,2.38774,1.94613,8.3934,5.81783,-0.007509613,31.6023
13261,21139.3,-0.371284,3.21051,2.38787,1.95127,8.39382,5.83402,0.0124955,31.6463
13302,21180.5,-1.744,2.96183,2.38806,1.96151,8.39444,5.86498,-0.0323159,31.467
13343,21221.7,-0.4653,3.18835,2.38899,1.97097,8.39757,5.89335,-0.0128648,31.4974
13384,21262.9,-0.410623,3.19635,2.38903,1.97856,8.39771,5.91697,0.000307751,31.3078
13425,21304.1,-0.728041,3.14588,2.38917,1.9847,8.39817,5.93611,-0.0267145,31.4024
13466,21345.3,0.367314,3.34716,2.39064,1.98816,8.40309,5.94701,-0.003631687,31.4801
13507,21386.5,0.367314,3.34285,2.39185,1.99202,8.40715,5.95884,0.037548,31.6188
13548,21427.7,-0.000451223,3.2813,2.393,1.99618,8.41099,5.97151,6.15597e-05,31.6966
13590,21468,-0.000451223,3.28068,2.39437,2.0026,8.41558,5.98963,0.0,31.5342
13631,21509.2,-0.000270769,3.2813,2.39539,2.00783,8.419,6.00541,0.000123119,31.568
13672,21550.4,-2.11952,2.89443,2.39549,2.01824,8.41934,6.03657,-0.0387176,31.7203
13713,21591.6,-0.000270769,3.28037,2.39787,2.02319,8.42727,6.05098,-0.00147734,31.6763
13754,21632.8,0.00748875,3.26652,2.39796,2.03348,8.42758,6.08153,0.00867915,31.6188
13795,21674,-0.886119,3.10741,2.39819,2.04089,8.42831,6.10433,-0.007078695,31.7372
13836,21715.2,-0.840464,3.11941,2.39849,2.04691,8.42932,6.12315,-0.0155117,31.8556
13877,21756.4,-1.36342,3.02246,2.39849,2.0538,8.42934,6.14465,0.001908207,31.8691
13918,21797.6,-1.29467,3.02246,2.39887,2.06656,8.43059,6.18229,-0.00080018,31.7643
13959,21838.8,-1.3968,3.01292,2.39966,2.07267,8.43324,6.20122,-0.0145268,31.7947
14000,21880,-1.09184,3.06247,2.39966,2.08091,8.43325,6.22672,0.0100949,31.7947
14041,21921.1,-0.825126,3.11633,2.40006,2.08528,8.43456,6.24041,-0.0128033,31.8691
14082,21962.3,-0.000451223,3.27329,2.40197,2.08693,8.44097,6.24557,0.0,31.8691
14123,22003.5,0.275824,3.31177,2.40283,2.09274,8.44383,6.26328,0.03921,31.7947
14164,22044.7,0.0430382,3.25637,2.40364,2.10133,8.44651,6.2879,0.0584764,31.8387
14206,22085.1,-1.62688,2.97045,2.40501,2.10537,8.4511,6.29991,-0.0159425,31.8826
14247,22126.3,-1.65684,2.95814,2.40602,2.11218,8.45446,6.32012,0.0213593,31.7338
14288,22167.5,0.282681,3.29792,2.4066,2.12191,8.45635,6.34886,-0.000677109,31.8048
14329,22208.7,-1.7597,2.9369,2.4085,2.12669,8.46269,6.3624,0.0343472,31.8623
14370,22249.9,0.478293,3.33454,2.40879,2.13346,8.46365,6.38318,0.0154501,31.8758
14411,22291.1,-0.586565,3.14188,2.40898,2.14214,8.46426,6.40972,-0.0232675,31.9198
14452,22332.3,-0.0136244,3.2419,2.40912,2.14778,8.46473,6.42731,-0.000307751,32.0078
14493,22373.4,-0.215552,3.19881,2.4093,2.15707,8.46533,6.45509,0.0270223,31.842
14534,22414.6,-0.819892,3.09633,2.41023,2.1666,8.46842,6.48336,0.000246239,31.7643
14575,22455.8,-0.394021,3.16558,2.41028,2.17431,8.46856,6.50705,-0.003877878,31.717
14616,22497,-0.0677605,3.22405,2.41041,2.18125,8.46898,6.52837,0.02105155,31.8354
14657,22538.2,0.166108,3.26899,2.41094,2.18569,8.47075,6.54222,-0.004493427,31.8794
14698,22579.4,-0.0899564,3.23021,2.41297,2.18771,8.4775,6.54834,-0.0168659,31.9369
14739,22620.6,0.365329,3.30315,2.41408,2.19373,8.48115,6.56647,0.0148961,32.0113
14780,22661.8,-0.000451223,3.24067,2.4156,2.20011,8.48621,6.58425,6.15597e-05,31.9369
14822,22702.2,0.382291,3.30653,2.4164,2.20535,8.48886,6.59985,-0.006278515,31.8625
14863,22743.4,-0.0944677,3.21205,2.41673,2.21373,8.48992,6.6245,0.003877926,31.8794
14904,22784.6,0.698266,3.35886,2.41854,2.22071,8.49588,6.64478,0.019882,31.6865
14945,22825.8,-0.660912,3.10125,2.4191,2.22989,8.49775,6.67149,0.00757117,31.7914
14986,22867,-1.02832,3.03877,2.41942,2.23672,8.49879,6.69219,-0.0353936,31.8691
15027,22908.2,-0.301268,3.16558,2.4197,2.24348,8.49971,6.71297,0.0256681,31.7372
15068,22949.4,-1.50598,2.95568,2.41973,2.24879,8.49981,6.72944,-0.0301,31.842
15109,22990.6,0.543978,3.29853,2.42004,2.26097,8.50082,6.76502,0.0907924,31.9029
15150,23031.8,-0.145536,3.18527,2.42089,2.268,8.50363,6.78608,0.0230828,31.9942
15191,23073.1,-0.848585,3.05478,2.42089,2.27647,8.50363,6.81187,0.006216955,31.8758
15232,23114.3,-0.180905,3.17912,2.42128,2.28158,8.50492,6.8275,-0.0341625,31.9063
15273,23155.5,0.174589,3.25329,2.42313,2.28447,8.51101,6.83644,-0.00640163,31.8758
15314,23196.7,-0.0258952,3.21236,2.424,2.28834,8.51383,6.84802,-0.002154398,31.9638
15355,23237.9,-1.68048,2.91382,2.42485,2.29389,8.51663,6.8645,-0.0179738,31.7541
15397,23278.1,-1.64168,2.92459,2.42622,2.29947,8.52112,6.87975,-0.0573069,31.974
15438,23319.2,-1.37244,2.96768,2.42724,2.30512,8.52448,6.8964,-0.00855603,31.7372
15479,23360.5,-1.6323,2.89135,2.42735,2.3187,8.52482,6.93552,0.0279456,31.7541
15520,23401.7,-0.000270769,3.20959,2.42972,2.31946,8.53256,6.93778,6.15597e-05,31.9503
15561,23442.9,-0.541632,3.09325,2.42984,2.33038,8.53296,6.96944,-0.008494472,31.8928
15602,23484.1,-0.681665,3.06186,2.43018,2.33837,8.53406,6.99339,-0.0417953,31.9875
15643,23525.3,-0.192274,3.14803,2.43035,2.34407,8.53458,7.01082,0.006278515,32.1093
15684,23566.4,-3.7474,2.51064,2.43035,2.35284,8.53458,7.03676,-0.101133,31.947
15725,23607.6,0.154017,3.19481,2.4308,2.3637,8.53604,7.06809,0.0181585,32.0653
15766,23648.9,0.000811954,3.16773,2.4315,2.37057,8.53833,7.08871,0.0288689,32.1127
15807,23690,0.033835,3.1745,2.43155,2.37782,8.53851,7.11053,0.0260989,32.1871
15848,23731.3,-0.834509,3.02523,2.43189,2.38266,8.53961,7.1253,-0.0254834,32.3798
15889,23772.4,-1.66442,2.88889,2.4338,2.38458,8.54584,7.13101,-0.0292998,32.3933
15930,23813.6,-0.759079,3.04678,2.435,2.38921,8.54971,7.14475,-0.0299153,32.5386
15971,23854.8,0.665604,3.28714,2.43638,2.3977,8.55421,7.16822,0.005539894,32.5014
16013,23895.2,0.0829185,3.17912,2.43703,2.40265,8.55629,7.18256,0.000800228,32.3324
16054,23936.4,-0.456819,3.06247,2.43785,2.41096,8.55895,7.20637,0.0313311,32.1803
16095,23977.5,0.297298,3.20005,2.439,2.41832,8.56264,7.22722,0.00178509,32.1938
16136,24018.7,-0.634025,3.00954,2.44032,2.42524,8.56689,7.24646,0.0198205,32.0755
16177,24059.9,-0.863382,2.9526,2.44064,2.43235,8.56789,7.26721,-0.0137881,32.045
16218,24101.1,-0.77911,2.94644,2.44082,2.4396,8.56846,7.28854,-0.007755852,31.8658
16259,24142.3,-0.462774,2.98522,2.44094,2.44496,8.56886,7.30435,-0.006894064,31.7914
16300,24183.4,-1.58628,2.73439,2.44113,2.45466,8.56942,7.33141,-0.0313311,31.5545
16341,24224.6,-0.0731741,2.95352,2.44206,2.46471,8.5723,7.35867,0.048874,31.6154
16382,24265.8,-0.412788,2.8418,2.44211,2.47218,8.57242,7.37946,0.005662966,31.6188
16423,24306.9,0.0444818,2.88335,2.44224,2.47837,8.57282,7.3964,0.007632685,31.5308
16464,24348.1,0.48497,2.95383,2.44333,2.48209,8.57602,7.40659,0.0180969,31.4124
16505,24389.1,0.00153377,2.83472,2.4448,2.48595,8.58036,7.41678,0.0549063,31.5037
16546,24430.4,-0.000270769,2.81349,2.44607,2.49012,8.58401,7.42754,0.000307798,31.4293
16588,24870.1,1.09942,3.32008,2.48426,2.49502,8.70623,7.43898,0.000615501,31.6019
16629,25075.2,1.09978,3.44411,2.54688,2.49502,8.91951,7.43898,6.15597e-05,31.6797
16670,25280.2,1.09942,3.47027,2.6095,2.49502,9.13595,7.43898,0.0,31.6695
16711,25485.3,1.0996,3.49797,2.67214,2.49502,9.35423,7.43898,0.0,31.8691
16752,25690.4,1.0996,3.51766,2.73477,2.49502,9.57396,7.43898,0.000123119,32.0957
16793,25895.4,1.09942,3.52721,2.79739,2.49502,9.79459,7.43898,0.0,32.2478
16834,26100.4,1.0996,3.53121,2.86001,2.49502,10.0156,7.43898,6.15597e-05,32.3628
16875,26305.5,1.09942,3.5349,2.92263,2.49502,10.2368,7.43898,6.1512e-05,32.2851
16916,26510.5,1.0996,3.54013,2.98526,2.49502,10.4584,7.43898,-6.15597e-05,32.3966
16957,26715.6,1.0996,3.5466,3.04789,2.49502,10.6803,7.43898,0.0,32.2783
16998,26920.6,1.0996,3.55429,3.11051,2.49502,10.9027,7.43898,-6.15597e-05,32.2243
17039,27125.7,1.0996,3.56414,3.17315,2.49502,11.1256,7.43898,0.0,32.2005
17080,27330.7,1.0996,3.57183,3.23576,2.49502,11.349,7.43898,6.1512e-05,32.116
17121,27535.8,1.0996,3.57983,3.29839,2.49502,11.5729,7.43898,6.1512e-05,32.1634
17162,27740.8,1.09942,3.59399,3.36103,2.49502,11.7975,7.43898,0.0,32.0586
17203,27945.3,0.918961,3.60138,3.42015,2.49502,12.0104,7.43898,6.15597e-05,31.8522
17244,28150.3,0.485331,3.60076,3.46041,2.49502,12.1554,7.43898,-6.1512e-05,31.7676
17285,28355.4,0.226018,3.60107,3.47945,2.49502,12.2239,7.43898,0.0,31.4497
17326,28560.4,0.129295,3.60107,3.48916,2.49502,12.2589,7.43898,0.0,31.5883
17367,28765.4,0.0850839,3.60107,3.49513,2.49502,12.2804,7.43898,0.0,31.9063
17408,28970.5,0.0609031,3.60107,3.49923,2.49502,12.2952,7.43898,0.0,31.8658
17473,29185.5,-2.25125,3.10556,3.50035,2.49703,12.2992,7.4455,-0.0334239,31.6425
17514,29226.7,-0.506805,3.3407,3.50181,2.50572,12.3044,7.47311,-0.0203128,31.6154
17555,29267.8,-0.867171,3.24283,3.50203,2.51284,12.3052,7.49619,-0.0349012,31.7676
17596,29309,-0.000270769,3.41087,3.50465,2.51461,12.3149,7.50184,6.15597e-05,31.7541
17637,29350.3,-1.51067,3.11264,3.50605,2.52266,12.3198,7.52618,-0.0196358,31.8589
17678,29391.6,-1.41828,3.06832,3.50605,2.54959,12.3198,7.60258,0.010218,31.727
17719,29432.7,-3.84953,2.65283,3.5061,2.5642,12.32,7.64678,-0.105196,31.6526
17760,29473.9,0.828373,3.48566,3.50987,2.57372,12.3332,7.67442,-0.009725571,31.683
17801,29515.1,-1.6276,3.04585,3.51251,2.57844,12.3424,7.68833,0.0353936,31.727
17842,29556.2,-0.000631677,3.34131,3.51581,2.58739,12.3542,7.71557,-0.000246239,31.7845
17883,29597.4,-0.000270769,3.33793,3.5179,2.59509,12.3617,7.7378,6.15597e-05,31.7507
17924,29638.7,-0.609303,3.21636,3.51792,2.60777,12.3617,7.77473,0.000123119,31.5377
17965,29679.8,-1.6812,3.04031,3.52109,2.61164,12.3729,7.78706,-0.0367478,31.7001
18006,29721,-0.000451223,3.337,3.52243,2.61662,12.3777,7.80269,6.15597e-05,31.6832
18047,29762.3,-0.741034,3.19974,3.52248,2.62263,12.3778,7.82159,-6.15597e-05,31.6392
18088,29803.4,-0.000270769,3.33731,3.5241,2.62504,12.3836,7.82907,6.15597e-05,31.6697
18129,29844.5,-0.000451223,3.33546,3.52569,2.63187,12.3892,7.85018,0.000123119,31.5377
18170,29885.6,-0.000451223,3.33393,3.52685,2.63722,12.3932,7.8669,0.000123119,31.4937
18211,29926.8,-0.92636,3.17327,3.5286,2.64469,12.3993,7.88977,-0.0303462,31.5681
18252,29967.9,-1.15951,3.11418,3.52865,2.6568,12.3995,7.92671,0.0283149,31.4937
18293,30009,-1.52998,3.06032,3.53017,2.66099,12.4047,7.94004,-0.0196358,31.7474
18334,30050.2,-0.877457,3.1745,3.53081,2.66743,12.4068,7.96041,-0.0329315,31.717
18375,30091.4,-0.0778659,3.3133,3.53132,2.67187,12.4086,7.97463,0.0184662,31.717
18416,30132.5,-1.84686,2.99384,3.53291,2.67965,12.4141,7.99832,-0.0168659,31.7338
18457,30173.7,0.13128,3.34993,3.53382,2.684,12.4172,8.0121,0.000553989,31.6459
18498,30214.8,-1.5446,3.06463,3.53488,2.68452,12.4209,8.01374,-0.0540445,31.842
18539,30256,-0.000451223,3.33208,3.53667,2.69142,12.4271,8.03471,0.002154398,31.842
18580,30297,-0.390051,3.2536,3.53667,2.6995,12.4271,8.05999,-0.004862785,31.8116
18621,30338.2,0.121355,3.33916,3.53823,2.7043,12.4325,8.07413,0.0853756,31.7067
18662,30379.4,0.0291432,3.32746,3.53946,2.70893,12.4369,8.08858,0.01071043,31.6594
18703,30420.5,-0.438774,3.25421,3.5403,2.71057,12.4397,8.09392,0.00049243,31.5985
18744,30461.8,-0.604611,3.20959,3.54061,2.72037,12.4408,8.12394,0.0739881,31.673
18785,30503,-1.44679,3.07232,3.54268,2.72264,12.4482,8.13092,0.01132598,31.717
18827,30543.5,-0.000451223,3.33177,3.54358,2.72525,12.4512,8.13885,0.000123119,31.717
18868,30584.6,1.03229,3.50104,3.54446,2.73247,12.4543,8.16083,0.0382867,31.6865
18909,30625.7,-0.317148,3.26098,3.54508,2.74093,12.4564,8.18707,0.00640163,31.6865
18950,30666.9,-0.000451223,3.32992,3.54787,2.74483,12.4664,8.19935,6.15597e-05,31.6121
18991,30708.2,0.180183,3.34654,3.54798,2.75072,12.4668,8.21649,0.0478891,31.6425
19032,30749.4,-2.10039,2.9289,3.54927,2.76999,12.4713,8.27078,-0.02363677,31.5377
19073,30790.6,-1.62291,3.0083,3.54931,2.79026,12.4715,8.32973,-0.03336234,31.5985
19114,30831.7,-1.12053,3.10248,3.55011,2.80361,12.4742,8.36879,-0.0302846,31.585
19155,30872.8,-0.000270769,3.32654,3.55572,2.80399,12.4937,8.36998,-6.15597e-05,31.6019
19196,30914,-0.462774,3.22128,3.55572,2.81751,12.4937,8.41035,0.00997181,31.6763
19237,30955.1,1.74418,3.61369,3.55997,2.82527,12.5088,8.43263,0.0493664,31.585
19278,30996.2,-1.40348,3.04862,3.56113,2.83551,12.5129,8.46161,0.03416257,31.629
19319,31037.4,-0.000451223,3.32038,3.56431,2.83971,12.5241,8.47494,-0.000184679,31.5985
19360,31078.5,1.58826,3.58507,3.56458,2.84681,12.525,8.49712,0.06814041,31.5377
19401,31119.7,-0.111791,3.29361,3.56568,2.85033,12.5289,8.508,-0.004924345,31.5681
19442,31161,-0.000631677,3.317,3.56732,2.85522,12.5347,8.52333,6.15597e-05,31.4937
19483,31202.1,0.126588,3.32685,3.56737,2.86207,12.5349,8.54435,0.0188356,31.4632
19524,31243.3,-1.35963,3.0677,3.5689,2.86658,12.5402,8.55833,-0.009417772,31.5681
19565,31284.5,0.253267,3.34347,3.57011,2.87481,12.5444,8.5834,0.0184047,31.6425
19606,31325.7,-0.2585,3.2536,3.57188,2.88271,12.5505,8.60731,0.006093836,31.5681
19647,31366.9,0.135972,3.32562,3.57229,2.88893,12.5519,8.62651,0.009725523,31.4632
19688,31408.1,-1.11133,3.10371,3.5739,2.89583,12.5574,8.64807,-0.00344706,31.5377
19729,31449.2,0.574836,3.40287,3.57446,2.89969,12.5593,8.66032,0.007632685,31.5377
19770,31490.4,-0.000270769,3.30623,3.57614,2.90385,12.565,8.67349,0.0,31.4632
19811,31531.7,-0.317148,3.24159,3.57683,2.9124,12.5674,8.69932,0.007386493,31.7137
19852,31572.8,-0.000451223,3.30469,3.57811,2.91418,12.5718,8.7049,6.15597e-05,31.7577
19893,31613.9,1.05737,3.48289,3.57945,2.92143,12.5764,8.72673,0.02332902,31.8761
19934,31655.1,-0.974361,3.1191,3.57991,2.92741,12.578,8.74511,0.008002043,31.7104
19975,31696.1,-0.000451223,3.30069,3.58144,2.92977,12.5832,8.75261,0.0,31.7375
20016,31737.4,-0.249117,3.24929,3.58267,2.93619,12.5875,8.77161,0.0419799,31.6327
20057,31778.5,-0.000451223,3.29792,3.58355,2.94017,12.5905,8.78404,6.15597e-05,31.7104
20098,31819.7,-0.336637,3.23021,3.58361,2.9466,12.5907,8.80364,6.15597e-05,31.68
20139,31860.9,-0.000270769,3.29761,3.58593,2.95071,12.5989,8.81612,6.15597e-05,31.7104
20180,31902.2,-0.000451223,3.29607,3.58683,2.95539,12.6019,8.83023,0.000123072,31.7104
20222,31942.5,0.160694,3.31731,3.58698,2.95992,12.6024,8.84381,0.000123072,31.636
20263,31983.7,-1.15463,3.08586,3.58833,2.96757,12.607,8.86709,-0.0445652,31.636
20304,32024.9,1.50093,3.5546,3.5903,2.975,12.6141,8.89014,-0.0180969,31.6055
20345,32066.1,-0.000451223,3.2973,3.59113,2.975,12.617,8.89016,0.0,31.6664
20386,32107.2,-3.68857,2.62021,3.59252,2.99328,12.6218,8.94098,-0.0280687,31.636
20427,32148.4,-1.10122,3.06709,3.59252,3.01588,12.6218,9.00546,0.0251757,31.5919
20468,32189.471,-1.05232,3.07848,3.59262,3.03138,12.6221,9.05053,0.0520133,31.6528
20509,32230.6,0.155641,3.32469,3.59833,3.0342,12.6419,9.05925,-0.0541677,31.3855
20550,32271.7,-0.765215,3.13757,3.59897,3.04434,12.644,9.08875,0.0265914,31.4464
20591,32312.9,-2.63652,2.82672,3.60229,3.04968,12.6557,9.10507,-0.05699911,31.5377
20632,32354.1,-1.01388,3.11418,3.60438,3.05567,12.6631,9.12186,-0.0353321,31.4632
20673,32395.2,-0.234319,3.23636,3.60439,3.06969,12.6631,9.16246,0.0126801,31.6425
20714,32436.4,-0.511677,3.18989,3.60755,3.07556,12.6742,9.18055,0.0217902,31.4632
20755,32477.6,-2.17294,2.90859,3.60889,3.07822,12.6789,9.18881,-0.0411797,31.5072
20796,32518.8,1.70556,3.57614,3.60919,3.0854,12.6799,9.21105,0.0959629,31.5512
20837,32560,-2.08072,2.91936,3.61057,3.08852,12.6848,9.22049,-0.0326852,31.5952
20878,32601.2,-0.604611,3.18466,3.61216,3.09249,12.6902,9.23266,-0.0211131,31.6392
20919,32642.5,-2.09552,2.91413,3.61333,3.10088,12.6942,9.25824,-0.0149576,31.4159
20960,32683.7,-2.43658,2.85073,3.61508,3.10979,12.7002,9.28497,-0.0374249,31.5648
21001,32724.9,-0.355945,3.21543,3.61525,3.11825,12.7008,9.31063,0.00141573,31.6088
21042,32766,-0.604791,3.17173,3.61667,3.12409,12.7056,9.32883,0.02400608,31.7577
21083,32807.2,0.0188573,3.28561,3.61736,3.129,12.7079,9.34423,0.000307751,31.9065
21124,32848.3,-0.360457,3.21974,3.61785,3.13322,12.7096,9.35758,0.00049243,31.9369
21165,32889.4,0.0188573,3.28068,3.61954,3.14149,12.7154,9.38233,0.00043087,31.8625
21206,32930.5,-0.000451223,3.28868,3.62137,3.14439,12.7217,9.39145,0.0,31.7881
21247,32971.6,-1.5058,3.01138,3.62137,3.15011,12.7217,9.40847,-0.00172353,31.7577
21288,33012.8,-1.94917,2.94367,3.62316,3.15316,12.7278,9.41786,-0.046535,31.7305
21329,33054,0.619047,3.39425,3.62442,3.15999,12.7321,9.43897,0.00036931,31.761
21370,33095.2,-0.000631677,3.28468,3.62594,3.16466,12.7373,9.45246,6.15597e-05,31.6425
21411,33136.3,0.033835,3.28807,3.62617,3.16996,12.7381,9.46886,-0.0166812,31.5681
21452,33177.5,-2.43189,2.8538,3.62681,3.17362,12.7403,9.48003,-0.0395178,31.6121
21493,33218.7,-0.000451223,3.28468,3.62919,3.18091,12.7486,9.50215,-6.15597e-05,31.761
21534,33259.9,0.121355,3.29853,3.62928,3.18557,12.7489,9.51616,0.000492477,31.7745
21576,33300.5,-0.911382,3.12895,3.63008,3.18585,12.7516,9.51703,-0.0319466,31.7441
21617,33341.7,-0.511677,3.18404,3.63153,3.19587,12.7566,9.54699,0.033547,31.7441
21658,33382.9,-0.331404,3.21451,3.63168,3.20306,12.757,9.56931,0.02462163,31.8625
21699,33424.1,-0.000270769,3.28714,3.6344,3.20514,12.7667,9.57576,6.15597e-05,31.8625
21740,33465.1,0.672281,3.39702,3.63571,3.21238,12.7712,9.59673,0.003754806,31.8625
21781,33506.3,-2.67063,2.77101,3.6358,3.23834,12.7716,9.66819,0.0401949,31.9065
21822,33547.4,-1.02832,3.0717,3.63585,3.25327,12.7717,9.7122,0.033547,31.8321
21863,33588.5,1.46646,3.52259,3.63817,3.26427,12.7796,9.74357,0.0212362,31.8321
21904,33629.7,-2.36837,2.8655,3.64226,3.26585,12.7937,9.74832,-0.0478276,31.8017
21945,33670.9,1.02344,3.45703,3.64526,3.27794,12.8042,9.78384,-0.0130495,31.9065
21986,33712.2,-0.000270769,3.27637,3.64768,3.28565,12.8127,9.80558,0.000123119,31.9369
22027,33753.3,-0.428668,3.18281,3.64769,3.29766,12.8127,9.83964,-0.0162503,31.7881
22068,33794.5,-0.686717,3.15542,3.65086,3.30095,12.8238,9.84999,-0.001969719,31.8354
22109,33835.6,-0.000451223,3.27668,3.65219,3.30715,12.8284,9.86904,6.15597e-05,31.6865
22150,33876.8,-0.379946,3.2022,3.65225,3.31238,12.8286,9.88514,0.0163118,31.6425
22191,33917.9,-0.000451223,3.27853,3.65387,3.31555,12.8343,9.89486,6.15597e-05,31.717
22232,33959.1,-0.000270769,3.27545,3.65545,3.32238,12.8397,9.91556,0.0,31.7914
22273,34000.2,0.789395,3.41087,3.65656,3.32774,12.8435,9.93198,-0.008863783,31.8929
22314,34041.4,-0.000270769,3.27237,3.65836,3.33511,12.8496,9.95409,-6.15597e-05,31.9233
22355,34082.5,-1.90568,2.92213,3.65842,3.34558,12.8498,9.98539,-0.0296691,31.8185
22396,34123.7,-0.867352,3.11449,3.65994,3.35019,12.8549,9.99958,0.00769429,32.0417
22437,34164.9,-0.419285,3.18589,3.66048,3.35769,12.8568,10.0228,-0.0171121,32.2345
22478,34206,-0.516369,3.17019,3.66109,3.362,12.8588,10.0362,0.0155732,32.3833
22519,34247.3,-1.30604,3.02646,3.66267,3.36808,12.8642,10.0546,-0.004062605,32.2785
22560,34288.4,0.359915,3.31946,3.6635,3.37454,12.867,10.0742,0.0211131,32.2785
22601,34329.6,-0.000451223,3.26806,3.66465,3.37454,12.8709,10.0742,0.0,32.3089
22642,34370.9,-0.000451223,3.26314,3.66644,3.38193,12.877,10.0962,0.001969719,32.2785
22683,34412.1,-0.394743,3.18004,3.66644,3.38968,12.877,10.1198,0.0122493,32.2345
22724,34453.4,-3.02143,2.72269,3.66798,3.39312,12.8822,10.1299,-0.0321928,32.0722
22765,34494.6,-0.609303,3.14095,3.66923,3.39922,12.8865,10.1481,0.02277503,32.089
22806,34535.7,-0.219522,3.22128,3.67008,3.40071,12.8894,10.1529,-0.005909204,31.9402
22847,34576.9,-1.34014,3.01107,3.67015,3.40912,12.8896,10.1784,-0.028438,32.0586
22888,34618.1,-1.02326,3.07878,3.67247,3.41136,12.8977,10.1848,-0.0360092,31.9098
22930,34658.5,-0.000451223,3.25668,3.67337,3.41576,12.9006,10.1979,6.15597e-05,31.9098
22971,34699.6,-0.521602,3.14896,3.67406,3.42279,12.903,10.2187,0.0480122,32.133
23012,34740.9,-0.892074,3.08063,3.67487,3.43099,12.9057,10.2434,0.008802271,32.0282
23053,34782.1,-0.000451223,3.25206,3.67766,3.43534,12.9155,10.2568,0.0,32.0722
23094,34823.3,-2.71935,2.75932,3.67766,3.44016,12.9155,10.2704,0.015881,32.0722
23135,34864.4,-0.988978,3.04154,3.67907,3.45888,12.9203,10.3214,0.000307751,31.9673
23176,34905.7,-0.940255,3.04554,3.67911,3.47946,12.9205,10.3796,-0.0373634,31.9673
23217,34946.9,-0.989158,3.0397,3.6799,3.49329,12.9231,10.4188,-0.0573069,32.0417
23258,34988,-0.000451223,3.24529,3.68552,3.49456,12.9422,10.4227,-6.15597e-05,32.0417
23299,35029.1,-0.633483,3.1031,3.68552,3.50722,12.9422,10.4593,6.15597e-05,31.9673
23340,35070.3,0.0726326,3.22651,3.68884,3.51586,12.9537,10.4835,0.0141575,31.9369
23381,35111.5,-2.73866,2.72269,3.69092,3.52443,12.9609,10.5067,-0.0235752,31.8489
23422,35152.6,0.657484,3.34716,3.69394,3.5303,12.9713,10.5245,-0.0209284,31.8794
23463,35193.7,-0.370562,3.15173,3.69414,3.53721,12.972,10.5454,-0.0150807,31.5681
23504,35234.9,-0.111791,3.20035,3.69547,3.54064,12.9765,10.5557,0.003754806,31.6425
23545,35276,-0.000451223,3.22405,3.69712,3.54582,12.9822,10.5714,0.000123119,31.7034
23586,35317.2,-0.633664,3.09756,3.69712,3.55234,12.9822,10.5908,-0.002708387,31.6121
23627,35358.3,-1.62291,2.93013,3.6987,3.55569,12.9876,10.6009,-0.056322,31.8354
23668,35399.5,0.0141655,3.2022,3.69986,3.56528,12.9914,10.6293,0.03305459,31.761
23709,35440.6,-0.424157,3.12618,3.70161,3.57299,12.9973,10.6518,-0.004370308,31.7305
23750,35481.9,-0.458082,3.12403,3.70196,3.5794,12.9985,10.671,0.000553989,31.9233
23791,35522.9,-0.867352,3.05232,3.70369,3.58532,13.0042,10.6889,-0.035209,32.3393
23832,35564.1,-0.239011,3.16127,3.70389,3.59027,13.0048,10.7041,0.004554987,32.3833
23873,35605.2,0.706206,3.33516,3.70588,3.59447,13.0115,10.717,-0.0187124,32.4137
23914,35646.4,-0.0536851,3.18804,3.7066,3.60271,13.0139,10.7409,0.0339163,32.4137
23955,35687.5,-0.000451223,3.20805,3.70788,3.60483,13.0182,10.7474,0.000123119,32.3833
23996,35728.7,0.998902,3.36747,3.70837,3.61209,13.0198,10.7686,0.0496127,32.4137
24037,35769.9,-1.13984,2.9883,3.70967,3.61683,13.0241,10.7826,-0.0262836,32.4881
24078,35811.1,-0.000270769,3.20005,3.71121,3.62045,13.0292,10.7936,6.15597e-05,32.5049
24119,35852.2,-0.940255,3.02892,3.71245,3.62563,13.0334,10.8083,-0.0188356,32.4305
24160,35893.4,-0.000270769,3.19297,3.71332,3.63087,13.0363,10.824,6.15597e-05,32.3122
24201,35934.5,-0.336456,3.12187,3.71338,3.63689,13.0365,10.8416,0.00166197,32.2378
24242,35975.7,-0.000451223,3.19235,3.7157,3.64141,13.0444,10.8549,6.15597e-05,32.2378
24283,36017,-0.000270769,3.18927,3.71659,3.64609,13.0473,10.8685,-0.0142806,32.1938
24325,36057.6,0.0823771,3.18835,3.71659,3.65063,13.0473,10.8816,0.0472736,32.0755
24366,36098.8,0.0244514,3.17758,3.71805,3.65779,13.0522,10.9026,0.0349012,32.133
24407,36140,0.135972,3.19204,3.71829,3.66568,13.0529,10.9262,0.0440112,32.0146
24448,36181.1,-0.000451223,3.19112,3.7209,3.66568,13.062,10.9262,6.15597e-05,31.9706
24489,36222.4,-2.43604,2.715,3.7223,3.68021,13.0666,10.9653,0.0478891,31.9131
24530,36263.6,-2.34365,2.68576,3.7223,3.70473,13.0666,11.0308,-0.01311102,31.8827
24571,36304.7,-1.9831,2.71254,3.72239,3.72019,13.067,11.073,0.0188972,31.8387
24612,36345.8,1.52005,3.38471,3.72706,3.72487,13.0821,11.0862,0.0493049,31.8251
24653,36386.9,-1.26218,2.84211,3.72875,3.73332,13.0877,11.1091,0.0610002,31.842
24694,36428.1,-0.803652,2.94613,3.73205,3.73861,13.0986,11.1241,-0.028438,31.842
24735,36469.3,-0.000270769,3.06401,3.73414,3.74615,13.1055,11.1437,0.000184679,31.8589
24776,36510.4,-0.0583769,2.95875,3.73416,3.75993,13.1056,11.1797,0.0252988,31.7405
24817,36551.6,-1.21328,2.74762,3.73732,3.76527,13.1157,11.1946,-0.003693247,31.7541
24858,36592.9,-0.000270769,2.97907,3.73866,3.76766,13.12,11.2013,0.000184679,31.7541
24899,36634.1,-1.47151,2.64267,3.73871,3.77535,13.1201,11.2224,-0.004862785,31.7067
24940,36675.2,-1.58393,2.63252,3.74034,3.77761,13.1252,11.2285,-0.00116954,31.6459
24981,36716.4,-0.000451223,2.8932,3.74192,3.78291,13.1301,11.2425,0.000184631,31.5545
25022,36757.6,-1.15933,2.61097,3.74308,3.78981,13.1335,11.2606,-0.009602452,31.5681
25063,36798.8,-1.25677,2.47278,3.74483,3.79877,13.1386,11.2827,0.0344088,31.5681
25092,36826.6,0.00153377,2.45647,3.74489,3.80496,13.1388,11.2973,0.00313926,31.5377