File: Battery Data/RAW/A123_01.csv
,Test_Time(s),Current(A),Voltage(V),Charge_Capacity(Ah),Discharge_Capacity(Ah),Charge_Energy(Wh),Discharge_Energy(Wh),dV/dt(V/s),Temperature (C)_1
1,8.06527,-1.09918,2.46847,0.0,0.001528987,0.0,0.00383082,-0.007017279,1.25617
64,321.943,1.09994,3.43334,0.051998,0.008765985,0.171641,0.0203669,0.00049243,1.17714
103,517.092,1.10013,3.5186,0.111629,0.008765985,0.379808,0.0203669,0.000184679,1.31813
142,712.293,1.09994,3.54414,0.171276,0.008765985,0.590427,0.0203669,0.000123119,1.52439
181,907.502,1.10013,3.56661,0.230924,0.008765985,0.802523,0.0203669,6.15597e-05,1.50726
220,1102.68,1.09994,3.58169,0.290565,0.008765985,1.01573,0.0203669,6.15597e-05,1.31813
259,1297.9,1.10013,3.58631,0.350217,0.008765985,1.22962,0.0203669,0.0,2.07011
298,1493.08,1.09994,3.59523,0.409857,0.008765985,1.44379,0.0203669,0.000123119,2.0765
337,1688.03,1.08567,3.59985,0.469282,0.008765985,1.65763,0.0203669,0.0,1.61408
376,1883.24,1.04716,3.59985,0.52713,0.008765985,1.86589,0.0203669,-6.15597e-05,1.5831
415,2078.44,1.00283,3.60016,0.582732,0.008765985,2.06607,0.0203669,0.0,1.44204
454,2273.63,0.952306,3.60047,0.635754,0.008765985,2.25696,0.0203669,6.1512e-05,1.39396
493,2468.81,0.893327,3.60016,0.685827,0.008765985,2.43723,0.0203669,0.0,1.28715
532,2664.02,0.822703,3.60047,0.73242,0.008765985,2.60497,0.0203669,-6.15597e-05,1.38008
571,2859.19,0.733483,3.60016,0.774706,0.008765985,2.75721,0.0203669,0.0,1.34173
610,3054.37,0.624729,3.60016,0.81161,0.008765985,2.89007,0.0203669,0.0,1.38657
649,3249.61,0.506208,3.60016,0.84227,0.008765985,3.00045,0.0203669,0.0,1.13871
688,3444.82,0.398017,3.60016,0.86671,0.008765985,3.08844,0.0203669,-6.1512e-05,1.01479
727,3640.01,0.3103,3.60016,0.885814,0.008765985,3.15722,0.0203669,0.0,0.8909
766,3835.23,0.244934,3.59985,0.900785,0.008765985,3.21111,0.0203669,-6.15597e-05,0.921872
805,4030.4,0.197038,3.59985,0.912706,0.008765985,3.25403,0.0203669,-6.15597e-05,0.632445
844,4225.59,0.162101,3.59985,0.922398,0.008765985,3.28892,0.0203669,-6.15597e-05,0.480795
883,4420.78,0.135992,3.60016,0.930449,0.008765985,3.31791,0.0203669,0.0,0.17751
922,4615.96,0.116458,3.60016,0.937268,0.008765985,3.34246,0.0203669,0.0,0.0429594
961,4811.18,0.10068,3.59985,0.943144,0.008765985,3.36361,0.0203669,-6.15597e-05,0.0119914
1000,5006.39,0.0888469,3.60016,0.948286,0.008765985,3.38212,0.0203669,0.0,0.02908
1039,5201.56,0.0792675,3.60016,0.952841,0.008765985,3.39852,0.0203669,6.15597e-05,-0.0158226
1078,5396.75,0.0711907,3.60016,0.956915,0.008765985,3.41319,0.0203669,6.15597e-05,0.0836591
1117,5591.95,0.0646166,3.60016,0.960588,0.008765985,3.42641,0.0203669,0.0,-0.08213006
1156,5787.11,0.0586061,3.60016,0.963927,0.008765985,3.43843,0.0203669,0.0,-0.0436706
1219,6064.23,0.000190588,3.53491,0.966286,0.008765985,3.44693,0.0203669,-0.000246191,0.0836591
1258,6103.44,-0.962068,3.23637,0.966287,0.0131021,3.44693,0.0349368,-0.0212365,-0.08213006
1297,6142.67,-0.480845,3.3207,0.967359,0.0164343,3.45068,0.0457403,-0.00129266,-0.386738
1336,6181.84,-0.480845,3.29207,0.968422,0.0222068,3.45437,0.0644308,-0.036256,-0.324465
1375,6221,-0.480657,3.25483,0.968422,0.02743575,3.45437,0.0815204,-0.000307798,-0.338376
1414,6260.18,0.000190588,3.35301,0.969487,0.0312106,3.45802,0.0934652,6.15597e-05,-0.476858
1453,6299.35,-3.84922,2.57496,0.969487,0.03831054,3.45802,0.115009,-0.132651,-0.279426
1492,6338.52,-0.962068,3.09479,0.97163,0.0609458,3.46543,0.176888,-0.0739277,0.0698087
1531,6377.72,0.000190588,3.31362,0.975903,0.0691521,3.48106,0.202223,-0.0707884,0.111372
1570,6416.89,0.000190588,3.31577,0.975905,0.0691521,3.48107,0.202223,0.000123072,-0.0436706
1610,6455.38,-0.480657,3.21913,0.975906,0.0719772,3.48107,0.211327,-6.15597e-05,-0.0747605
1649,6494.53,0.000378419,3.317,0.977016,0.0760943,3.48484,0.224258,0.000184679,-0.105854
1688,6533.71,-0.962068,3.11203,0.977017,0.0823704,3.48484,0.24415,-0.000369358,-0.136951
1727,6572.9,-0.480657,3.2099,0.978085,0.0866029,3.48847,0.257737,-6.15597e-05,-0.16805
1766,6612.14,0.000190588,3.30839,0.979156,0.0915889,3.49211,0.273419,0.000123119,-0.136951
1805,6651.34,-0.480845,3.20897,0.979157,0.0954759,3.49211,0.285908,-0.000123119,-0.105854
1844,6690.52,0.962825,3.4158,0.979236,0.121006,3.49238,0.355273,0.129204,-0.105854
1883,6729.72,-0.962068,3.07325,0.981293,0.129424,3.49946,0.381158,0.0,-0.105854
1922,6768.92,0.000378419,3.301,0.98557,0.129556,3.51504,0.381564,0.000184679,-0.105854
1962,6807.34,-0.480845,3.2099,0.985571,0.131173,3.51505,0.386761,-0.000184679,-0.136951
2001,6846.53,0.000190588,3.30377,0.98664,0.136504,3.51867,0.40354,0.0,0.259761
2040,6885.71,-0.962256,3.10987,0.98664,0.140371,3.51867,0.415887,-0.01914363,0.321714
2079,6924.91,-0.480845,3.20159,0.987709,0.145811,3.52229,0.433066,-0.000184631,0.414654
2118,6964.12,0.481226,3.38502,0.988363,0.151999,3.5245,0.45255,0.001046419,0.476616
2157,7003.3,-0.480657,3.2019,0.988778,0.154678,3.5259,0.461137,-0.000123072,0.431778
2196,7042.49,-2.40593,2.76547,0.988778,0.175559,3.5259,0.517937,-0.000677109,0.400792
2235,7081.71,-0.962068,3.06217,0.990915,0.187401,3.53323,0.552452,0.0,0.29399
2274,7120.92,0.000190588,3.28746,0.995184,0.18995,3.54874,0.560257,0.000246191,0.400792
2314,7159.31,-0.480657,3.20405,0.995186,0.190358,3.54875,0.561565,-0.000677109,0.29399
2353,7198.5,0.481226,3.37487,0.995487,0.196894,3.54976,0.582148,0.0565076,0.445634
2392,7237.71,-0.480657,3.19636,0.996254,0.19923,3.55236,0.589622,-0.000123119,0.535319
2431,7276.91,-0.480657,3.19235,0.997326,0.204995,3.55597,0.607724,-0.000123072,0.504339
2470,7316.08,-0.962068,3.08617,0.997326,0.211273,3.55597,0.62754,-0.000492477,0.228787
2509,7355.27,-0.480845,3.19205,0.998395,0.213861,3.55958,0.635684,-0.000184631,0.366558
2548,7394.45,-2.40574,2.76516,0.998395,0.229892,3.55958,0.679357,-0.000677061,0.321714
2587,7433.65,-0.962256,3.05047,1.00053,0.24536,3.56688,0.723025,-0.000123119,0.259761
2626,7472.83,0.000190588,3.27145,1.00481,0.250324,3.58239,0.73816,0.000184679,0.287506
2666,7511.28,0.000190588,3.28376,1.00481,0.250324,3.5824,0.73816,0.000123119,0.346236
2705,7550.47,-0.962068,3.08371,1.00481,0.255458,3.5824,0.754381,-0.000553989,0.815071
2744,7589.67,-0.480845,3.18528,1.00589,0.258391,3.58601,0.76354,-0.000246191,0.8909
2783,7628.87,-0.480845,3.18189,1.00696,0.26416,3.5896,0.781576,-0.000615549,0.828957
2822,7668.08,-0.480657,3.17358,1.00696,0.269396,3.5896,0.798208,-6.15597e-05,0.815071
2861,7707.29,-0.480469,3.18251,1.00803,0.273033,3.5932,0.809437,-0.01889739,0.8909
2900,7746.5,-3.84922,2.49678,1.00803,0.283192,3.5932,0.837982,-0.002831555,0.573707
2939,7785.68,-0.962256,3.04185,1.01017,0.303348,3.6005,0.892917,-0.000615549,0.725359
2978,7824.89,0.000190588,3.25914,1.01445,0.310714,3.61596,0.915301,-0.000677109,0.604679
3018,7863.24,0.000190588,3.27053,1.01445,0.310714,3.61597,0.915301,6.15597e-05,0.256535
3057,7902.46,-0.480845,3.17173,1.01445,0.313946,3.61597,0.925566,-0.000184679,0.256535
3096,7941.66,0.000190588,3.27207,1.01552,0.317658,3.61956,0.937018,0.000184679,0.863135
3135,7980.88,0.481226,3.35271,1.01587,0.324073,3.62073,0.957044,0.0574309,0.863135
3174,8020.06,-0.480845,3.16435,1.01658,0.328587,3.62314,0.971342,-6.15597e-05,0.894109
3213,8059.29,0.000190588,3.26591,1.01765,0.333153,3.62673,0.985468,0.000246239,0.590799
3252,8098.49,-0.480657,3.16435,1.01766,0.337456,3.62673,0.9991,0.0,0.65275
3291,8137.67,0.962637,3.40257,1.01857,0.36254,3.62982,1.06584,0.003877974,0.335582
3330,8176.88,1.92508,3.60785,1.0212,0.371084,3.63905,1.09174,0.0121264,0.321714
3369,8216.07,0.000190588,3.26099,1.02408,0.371084,3.64948,1.09174,0.000123072,0.259761
3409,8254.39,-0.480845,3.16681,1.02408,0.373102,3.64948,1.09814,-0.000123119,0.242659
3448,8293.6,0.000190588,3.26314,1.02515,0.378028,3.65306,1.11341,0.000123119,0.96994
3487,8332.82,-0.96188,3.06278,1.02515,0.382715,3.65306,1.1281,-0.000553989,1.04577
3526,8371.99,-0.480845,3.15912,1.02622,0.387736,3.65664,1.1438,-0.000123119,0.863135
3565,8411.16,0.481414,3.35209,1.02727,0.393518,3.66016,1.16174,0.000800228,0.863135
3604,8450.37,-0.480657,3.15942,1.02729,0.396603,3.66021,1.17149,-0.000184631,0.604679
3643,8489.57,-2.40574,2.71746,1.02729,0.419125,3.66021,1.23159,-0.000615549,0.894109
3682,8528.74,-0.96188,3.02277,1.02941,0.429749,3.66743,1.26254,6.15597e-05,0.211687
3721,8567.93,0.000190588,3.25299,1.03368,0.431493,3.68282,1.26781,0.000123119,0.228787
3761,8606.36,-0.480845,3.16465,1.03368,0.432305,3.68283,1.27038,-0.000369358,0.290736
3800,8645.55,0.481226,3.34778,1.03438,0.438442,3.68518,1.28945,0.000984907,0.473359
3839,8684.75,-0.480845,3.15881,1.03475,0.441177,3.68639,1.2981,-0.000123119,0.945442
3878,8723.97,-0.480657,3.15573,1.03581,0.446949,3.68996,1.31601,-0.000184679,0.673109
3917,8763.16,-0.96188,3.0477,1.03581,0.453638,3.68996,1.33681,-0.000369358,0.431778
3956,8802.36,-0.480657,3.15727,1.036884,0.455814,3.69353,1.34365,-0.000123119,0.476616
3995,8841.57,-2.40574,2.71992,1.036884,0.473505,3.69353,1.39099,-0.000677061,0.414654
4034,8880.75,-0.962068,3.01661,1.03902,0.487735,3.70076,1.43092,-6.15597e-05,0.352693
4073,8919.94,0.000190588,3.24498,1.0433,0.491887,3.71618,1.44344,0.000123119,0.228787
4113,8958.32,0.000190588,3.25822,1.0433,0.491887,3.71619,1.44344,0.000184679,0.166839
4152,8997.53,-0.962068,3.05109,1.0433,0.497831,3.71619,1.46199,-0.00049243,0.590799
4191,9036.72,-0.480657,3.15758,1.04437,0.500363,3.71975,1.46988,-6.15597e-05,0.956064
4230,9075.89,-0.480657,3.15419,1.04543,0.506132,3.72332,1.48775,-0.000246239,0.863135
4269,9115.08,-0.962068,3.05016,1.04543,0.511603,3.72332,1.50494,-0.0194514,0.849257
4308,9154.29,-0.480845,3.15573,1.04651,0.514997,3.7269,1.51535,-0.000307751,0.470124
4347,9193.48,-2.40574,2.71715,1.04651,0.52782,3.7269,1.54986,0.0523219,0.394302
4386,9232.7,-0.962068,3.01138,1.04865,0.545691,3.73415,1.59885,-0.000184679,0.228787
4425,9271.9,0.000190588,3.23729,1.05293,0.552256,3.74956,1.61861,-0.000123072,0.197813
4465,9310.28,0.000190588,3.25114,1.05293,0.552256,3.74957,1.61861,0.000123072,0.321714
4504,9349.47,-0.480845,3.14927,1.05294,0.555886,3.74957,1.63006,-0.000184679,0.366558
4543,9388.65,-0.480657,3.15727,1.054,0.559515,3.75314,1.64116,-0.0192668,0.669856
4582,9427.87,0.481038,3.34009,1.05475,0.565616,3.75562,1.66006,0.000984907,0.566302
4621,9467.04,-0.480657,3.14311,1.05507,0.570523,3.75669,1.6755,-6.15597e-05,0.600558
4660,9506.25,0.000190588,3.24868,1.05614,0.574695,3.76025,1.68828,0.000246191,0.600558
4699,9545.45,-0.480657,3.1428,1.05614,0.579389,3.76025,1.70305,-0.000123119,0.600558
4738,9584.64,0.962825,3.38872,1.05783,0.604108,3.76596,1.76775,0.00196977,0.555721
4777,9623.86,1.92508,3.60139,1.06124,0.612666,3.77809,1.79344,0.002215958,0.555721
4816,9663.08,0.000190588,3.24314,1.06253,0.612666,3.78274,1.79344,0.000184679,0.524732
4856,9701.44,-0.480845,3.14588,1.06253,0.615089,3.78274,1.80107,-6.15597e-05,0.507602
4895,9740.65,0.000190588,3.24622,1.0636,0.619614,3.7863,1.81497,0.000123119,0.976424
4934,9779.86,-0.962068,3.03724,1.0636,0.625107,3.7863,1.83202,-0.000492477,0.704093
4973,9819.07,-0.480845,3.13757,1.06466,0.629735,3.78986,1.84646,-0.000123119,0.717954
5012,9858.26,0.000190588,3.23944,1.06573,0.635113,3.7934,1.863,-0.000246239,0.428516
5051,9897.47,-0.480845,3.13788,1.06573,0.638607,3.7934,1.87397,-0.000123119,0.414654
5090,9936.67,-2.40574,2.67468,1.06573,0.662757,3.7934,1.93744,-0.000677109,0.445634
5129,9975.86,-0.962068,2.99107,1.06786,0.672147,3.80059,1.96498,0.0,0.445634
5168,10015,0.000190588,3.23237,1.07215,0.673065,3.81594,1.96773,0.000123119,0.414654
5208,10053.4,-0.480845,3.14157,1.07215,0.674283,3.81594,1.97156,-0.000246239,0.400792
5247,10092.6,0.000190588,3.23852,1.07321,0.68002,3.81949,1.98922,-0.017851,0.77992
5286,10131.8,-0.480845,3.13511,1.07321,0.683162,3.81949,1.99909,-6.15597e-05,0.735081
5325,10171,-0.480657,3.1308,1.07429,0.688924,3.82305,2.01682,-0.000123072,0.569571
5364,10210.2,0.481226,3.3127,1.07454,0.695508,3.82387,2.03708,0.0589083,0.600558
5403,10249.4,-0.480657,3.1308,1.07535,0.697793,3.82659,2.04424,-0.000123072,0.538585
5442,10288.6,-2.40555,2.67283,1.07535,0.717038,3.82659,2.09487,-0.000738668,0.569571
5481,10327.8,-0.962068,2.97937,1.0775,0.730067,3.83378,2.13125,-0.000123119,0.476616
5520,10367,0.000190588,3.21975,1.08178,0.733417,3.84911,2.14123,0.000184679,0.476616
5560,10405.4,-0.480657,3.14434,1.08178,0.733427,3.84911,2.14126,-0.0177895,0.414654
5599,10444.6,-0.96188,3.01538,1.08178,0.740174,3.84911,2.16205,-0.00049243,1.049
5638,10483.8,-0.480845,3.1268,1.08285,0.742297,3.85266,2.16868,-0.000184679,1.13871
5677,10523,-0.480845,3.12249,1.08392,0.748068,3.8562,2.18638,-0.000246239,1.0319
5716,10562.2,-0.962068,3.01138,1.08392,0.753951,3.8562,2.20458,-0.000738668,1.049
5755,10601.4,-0.480845,3.1228,1.08499,0.756934,3.85973,2.21368,-0.000307798,0.607901
5794,10640.6,-2.40555,2.66821,1.08499,0.771388,3.85973,2.2518,-6.15597e-05,0.5011
5833,10679.8,-0.962068,2.96676,1.08713,0.78804,3.86687,2.29687,-0.000184679,0.349454
5872,10718.9,0.000378419,3.20497,1.09141,0.7938,3.88213,2.31394,0.000123119,0.228787
5912,10757.3,0.000190588,3.22005,1.09141,0.7938,3.88214,2.31394,0.000123119,0.352693
5951,10796.5,-0.962068,3.01261,1.09141,0.798129,3.88214,2.32738,-0.0199439,0.642128
5990,10835.8,-0.480657,3.1191,1.09248,0.801469,3.88568,2.3375,-0.000430918,1.31074
6029,10875,-0.480657,3.1191,1.09355,0.807243,3.8892,2.35513,-0.037364,1.34173
6068,10914.2,-0.480845,3.10095,1.09355,0.812477,3.8892,2.37139,-6.15597e-05,1.05225
6107,10953.4,0.000378419,3.21267,1.09462,0.816238,3.89273,2.38271,0.000246191,0.628266
6146,10992.6,-3.84922,2.40783,1.09462,0.823433,3.89273,2.40344,-0.138376,0.445634
6185,11031.7,-0.962068,2.95998,1.09676,0.845999,3.89983,2.46142,-0.0767593,0.597282
6224,11070.9,0.000190588,3.19974,1.10104,0.854173,3.91501,2.4855,-0.0728813,0.597282
6263,11110.1,0.000190588,3.20313,1.10104,0.854173,3.91502,2.4855,0.000184631,0.445634
6303,11148.5,-0.480845,3.09848,1.10104,0.856999,3.91502,2.49427,-0.000307751,0.642128
6342,11187.6,0.000190588,3.20374,1.10211,0.861122,3.91853,2.5067,0.000184679,1.35559
6381,11226.8,-0.962068,2.97814,1.10211,0.867403,3.91853,2.52582,-0.000615549,1.38657
6420,11266,-0.480845,3.08402,1.10318,0.871631,3.92203,2.53887,-0.000123119,1.11423
6459,11305.2,0.000190588,3.19143,1.10424,0.876618,3.92553,2.55389,0.000246239,0.841893
6498,11344.4,-0.480845,3.08186,1.10424,0.880506,3.92553,2.5659,-0.000184631,0.614411
6537,11383.6,0.962637,3.24652,1.10432,0.906011,3.92577,2.63061,0.133636,0.600558
6576,11422.8,-0.962068,2.91197,1.10638,0.914424,3.93256,2.65517,-0.000123119,0.662537
6615,11462,0.000190588,3.18251,1.11065,0.914565,3.94766,2.65558,0.000307798,0.631547
6655,11500.5,-0.480845,3.0834,1.11066,0.916187,3.94766,2.66059,-0.000369358,0.631547
6694,11539.7,0.000190588,3.18097,1.11172,0.921512,3.95114,2.67663,-0.000246239,1.46569
6733,11578.9,-0.962068,2.96706,1.11172,0.925406,3.95115,2.68854,-0.0208056,1.51053
6772,11618.1,-0.480845,3.06217,1.11279,0.930826,3.95463,2.70489,-0.000246191,1.31074
6811,11657.2,0.481226,3.25514,1.11344,0.937007,3.95675,2.72344,0.002400637,1.17294
6850,11696.4,-0.480657,3.0594,1.11386,0.939691,3.95811,2.73167,-0.000246191,0.987042
6889,11735.6,-2.40574,2.52941,1.11386,0.96062,3.95811,2.78415,-0.00141578,1.10773
6928,11774.8,-0.962068,2.86673,1.116,0.972424,3.96507,2.81604,-0.000307798,0.96994
6967,11814,0.000378419,3.15358,1.12028,0.97497,3.98004,2.82333,0.000430918,1.04577
7007,11852.4,-0.480845,3.0674,1.12028,0.975383,3.98005,2.8246,-0.00141578,0.697601
7046,11891.7,0.481226,3.22621,1.12059,0.981923,3.98102,2.84418,0.0614936,1.22841
7085,11930.9,-0.480657,3.04278,1.12136,0.984264,3.98351,2.85133,-0.00043087,1.39719
7124,11970.1,-0.480845,3.03231,1.12242,0.990035,3.98695,2.8685,-0.00043087,1.35233
7163,12009.3,-0.962256,2.89597,1.12242,0.99633,3.98695,2.88729,-0.0012311,1.23165
7202,12048.4,-0.480657,3.02923,1.12349,0.998902,3.99039,2.89494,-0.00049243,1.35559
7241,12087.6,-2.40574,2.46046,1.12349,1.01499,3.99039,2.93467,-0.002031326,1.24877
7280,12126.8,-0.96188,2.78548,1.12563,1.03042,3.99714,2.97344,-0.000923347,1.17294
7319,12166,0.000378419,3.09787,1.12991,1.03538,4.01182,2.98718,0.000246239,0.928321
7359,12204.4,0.000190588,3.1228,1.12991,1.03538,4.01183,2.98718,0.000307751,1.12483
7398,12243.6,-0.962068,2.86857,1.12991,1.04051,4.01183,3.00243,-0.002215958,1.42817
7437,12282.8,-0.480657,2.99569,1.13098,1.04346,4.01522,3.01101,-0.000923347,1.47302
7476,12322,-0.480845,2.97999,1.13205,1.04923,4.0186,3.02782,-0.00196977,1.41106
7515,12361.2,-0.480657,2.93875,1.13205,1.05446,4.0186,3.04328,-0.00036931,1.38008
7554,12400.3,-0.480845,2.97106,1.13312,1.05809,4.02195,3.05355,-0.0209288,1.27327
7593,12439.6,-3.84922,2.08744,1.13312,1.06817,4.02195,3.07887,-0.0130497,1.16646
7632,12478.8,-0.962068,2.62112,1.13525,1.08839,4.02829,3.12427,-0.003631735,1.09063
7671,12518,0.000378419,2.95106,1.13952,1.09577,4.04221,3.14328,-0.0015389,1.01479
7711,12556.4,0.000190588,2.98368,1.13952,1.09577,4.04221,3.14328,0.000246239,1.04577
7750,12595.537,-0.480657,2.83226,1.13952,1.09899,4.04222,3.15251,-0.001046419,1.24229
7789,12634.7,0.000190588,2.95414,1.14059,1.10271,4.04542,3.16256,0.000553989,2.00066
7828,12674,0.481226,2.94983,1.14094,1.10913,4.04643,3.18006,0.069188,1.54563
7867,12713.1,-0.480845,2.71007,1.14166,1.11364,4.04859,3.19244,-0.0009233,1.43882
7906,12752.4,0.000190588,2.83318,1.14273,1.11821,4.05166,3.20429,0.000984907,1.36298
7945,12791.6,-0.480845,2.64082,1.14273,1.12251,4.05166,3.21583,-0.0012311,1.25617
7985,13265.6,1.09994,3.4792,1.19472,1.12306,4.22745,3.21726,0.000307798,0.507602
8024,13460.8,1.09994,3.52014,1.25435,1.12306,4.43646,3.21726,0.0,0.566302
8063,13655.9,1.10013,3.54476,1.31399,1.12306,4.64716,3.21726,0.0,0.911213
8102,13851.1,1.09994,3.56384,1.37363,1.12306,4.8592,3.21726,0.0,0.938965
8141,14046.3,1.09994,3.57461,1.43328,1.12306,5.07213,3.21726,0.0,0.997703
8180,14241.5,1.10013,3.58169,1.49292,1.12306,5.28556,3.21726,6.15597e-05,1.01479
8219,14436.7,1.09994,3.58662,1.55256,1.12306,5.49932,3.21726,0.0,1.27975
8258,14632,1.09994,3.59246,1.61221,1.12306,5.71343,3.21726,0.0,1.33523
8297,14827.1,1.09994,3.59923,1.67185,1.12306,5.92789,3.21726,0.0,1.38008
8336,15018.2,1.06538,3.59985,1.72939,1.12306,6.13504,3.21726,0.0,1.41106
8375,15213.4,1.0218,3.60016,1.78602,1.12306,6.33891,3.21726,6.15597e-05,1.31813
8414,15408.6,0.969023,3.60016,1.84004,1.12306,6.53339,3.21726,0.0,1.42817
8453,15603.8,0.901216,3.60016,1.89084,1.12306,6.71628,3.21726,0.0,1.40371
8492,15799,0.804295,3.60016,1.93725,1.12306,6.88335,3.21726,6.15597e-05,1.4347
8531,15994.2,0.660041,3.60016,1.97716,1.12306,7.02704,3.21726,0.0,1.09385
8570,16189.4,0.487049,3.60016,2.00825,1.12306,7.13897,3.21726,0.0,0.952845
8609,16384.6,0.33885,3.60016,2.03044,1.12306,7.21885,3.21726,0.0,0.8909
8648,16579.7,0.237421,3.60016,2.04586,1.12306,7.27436,3.21726,6.15597e-05,0.487228
8687,16775,0.173183,3.60016,2.05686,1.12306,7.31395,3.21726,0.0,0.0600496
8726,16970.1,0.132424,3.60016,2.06506,1.12306,7.34347,3.21726,6.15597e-05,0.256535
8765,17165.3,0.105564,3.60016,2.07146,1.12306,7.36652,3.21726,6.15597e-05,0.0429594
8804,17360.5,0.0873442,3.59985,2.07666,1.12306,7.38526,3.21726,0.0,-0.0501248
8843,17555.7,0.074196,3.60016,2.08103,1.12306,7.40098,3.21726,0.0,-0.112293
8882,17750.9,0.0646166,3.60016,2.08478,1.12306,7.41448,3.21726,0.0,-0.0812081
8921,17946,0.0569156,3.59985,2.08806,1.12306,7.4263,3.21726,-0.000123072,-0.105854
8984,18147.8,0.138998,3.45273,2.08908,1.12802,7.42994,3.23291,0.005355311,-0.105854
9023,18187,-1.33585,3.08863,2.08994,1.13571,7.43296,3.25642,0.007632875,0.00133303
9062,18226.2,0.301847,3.39518,2.09069,1.14367,7.43551,3.2804,0.00504751,-0.16805
9101,18265.4,-1.75979,2.9766,2.09242,1.14848,7.44144,3.29422,0.0355789,-0.136951
9140,18304.6,0.0396351,3.32839,2.09261,1.15501,7.44206,3.31463,0.0132959,-0.0469065
9179,18343.7,-0.776867,3.15881,2.09289,1.16326,7.44302,3.34019,0.0115108,-0.0779938
9218,18382.9,-0.0137089,3.29731,2.09305,1.16874,7.44356,3.35754,0.00609393,-0.109083
9257,18422.1,0.566313,3.38256,2.09311,1.17762,7.44377,3.38436,0.13456,-0.06406115
9296,18461.3,0.152334,3.30869,2.09346,1.18781,7.44494,3.41492,0.0375486,-0.0190436
9335,18500.5,-1.01898,3.08556,2.09421,1.19413,7.44747,3.43451,-0.0168046,-0.0190436
9374,18539.6,-0.008637472,3.28223,2.09426,1.20139,7.44762,3.45709,0.0424731,-0.0812081
9413,18578.8,-0.825139,3.13449,2.0946,1.20573,7.4488,3.47076,-0.0137268,-0.174473
9452,18618,0.000378419,3.313,2.09652,1.20735,7.45531,3.47587,0.000123119,-0.084399
9491,18657.2,-1.68033,2.97753,2.09733,1.21265,7.458,3.4921,-0.0309007,-0.222703
9530,18696.4,-1.59299,2.97968,2.09818,1.2187,7.46088,3.50996,0.009602594,0.143365
9570,18734.708,-2.04022,2.90889,2.09955,1.22288,7.46552,3.52164,-0.06481757,0.233082
9609,18773.8,-0.936147,3.12034,2.10057,1.22767,7.46897,3.53615,-0.0369331,0.0195297
9648,18813,-2.45326,2.7984,2.10068,1.23973,7.46932,3.57178,-0.01766634,0.50541
9687,18852.2,0.000190588,3.30346,2.10305,1.24232,7.47728,3.57932,0.0,0.474449
9726,18891.4,0.00789166,3.28161,2.10314,1.25264,7.4776,3.60979,0.008925485,0.233082
9765,18930.6,-0.685581,3.1428,2.10336,1.25962,7.47833,3.63125,-0.0140961,0.0953456
9804,18969.8,-0.575512,3.16681,2.10364,1.26565,7.47927,3.65008,-0.000677109,0.474449
9843,19009.1,-0.795838,3.12157,2.10367,1.2713,7.47936,3.66781,0.0264071,0.367667
9882,19048.3,-0.27949,3.20897,2.10405,1.28262,7.48062,3.7011,0.0622322,0.398625
9921,19087.5,-0.920745,3.09233,2.10483,1.28952,7.48324,3.72202,-0.0303467,0.460547
9960,19126.6,-0.104056,3.24498,2.10483,1.29726,7.48325,3.74593,0.0322549,0.174327
9999,19165.8,-0.721269,3.13542,2.10497,1.30291,7.48371,3.76342,-0.0212981,0.3291502
10038,19205,0.367588,3.36163,2.10645,1.30611,7.48869,3.7735,-0.003570223,0.180716
10077,19244.2,0.002068899,3.2813,2.10752,1.30996,7.49231,3.78522,0.0612473,0.149746
10116,19283.4,0.000378419,3.28869,2.10879,1.31412,7.49657,3.79783,-0.00166197,0.163626
10155,19322.6,0.000378419,3.28684,2.11016,1.32051,7.50119,3.81563,0.000184631,0.208478
10195,19360.8,0.297715,3.34347,2.11107,1.32574,7.50423,3.83125,-0.009479475,0.587589
10234,19400,0.187646,3.30377,2.11126,1.33411,7.50487,3.85598,0.0273921,0.739242
10273,19439.2,0.135617,3.30346,2.1129,1.34111,7.51034,3.87632,-0.009294843,0.511765
10312,19478.4,-0.34354,3.19112,2.11367,1.34872,7.5129,3.89837,0.02400651,0.253329
10351,19517.6,-0.807859,3.09725,2.11398,1.3558,7.51394,3.91984,0.002092886,0.343038
10390,19556.8,-0.778933,3.10649,2.11416,1.36241,7.51455,3.94031,-0.008248377,0.5844
10429,19596,-0.36777,3.18989,2.11429,1.36746,7.51497,3.95606,-0.009664154,0.522472
10468,19635.2,-0.414353,3.16927,2.11448,1.37658,7.51558,3.98323,-0.007694387,0.674123
10507,19674.4,-0.433699,3.16589,2.11541,1.38592,7.51872,4.01073,-0.004924393,0.536371
10546,19713.6,-1.20907,3.01138,2.11546,1.39332,7.51886,4.03338,-0.0430886,0.491509
10585,19752.8,-0.668864,3.12372,2.11558,1.40009,7.51927,4.05411,-0.0321318,0.612196
10624,19792,-0.102553,3.23267,2.11585,1.40484,7.52016,4.06895,0.0144655,0.474449
10663,19831.2,-0.318934,3.19851,2.11777,1.40683,7.5266,4.07495,0.0499828,0.550273
10702,19870.4,-0.758459,3.12157,2.11897,1.41082,7.53059,4.08706,-0.0306545,0.474449
10741,19909.5,0.539641,3.36132,2.12002,1.41929,7.5341,4.11089,-0.000307798,0.488355
10781,19947.8,0.0877199,3.25945,2.12081,1.42425,7.53676,4.12554,0.0652484,0.519313
10820,19987,-1.57534,2.93321,2.12182,1.43062,7.54014,4.14415,0.008556175,0.56418
10859,20026.2,0.198165,3.28192,2.12233,1.43989,7.54181,4.17114,-0.005109072,0.426441
10898,20065.4,-2.63564,2.73777,2.1243,1.44254,7.54838,4.17863,-0.01914363,0.426441
10937,20104.6,-0.290948,3.19082,2.12443,1.45116,7.5488,4.20419,-0.002339077,0.457397
10976,20143.8,-1.0588,3.04001,2.12476,1.45906,7.5499,4.22814,-0.0104643,0.457397
11015,20183,-0.191773,3.2062,2.12493,1.4645,7.55044,4.245,0.007078839,0.426441
11054,20222.2,-3.02971,2.64728,2.12493,1.47212,7.55044,4.26821,-0.0754666,0.350619
11093,20261.4,-0.808422,3.06524,2.12532,1.48379,7.55173,4.30192,0.002708435,0.488355
11132,20300.6,-0.590162,3.1151,2.12609,1.4896,7.55431,4.31965,-0.0121264,0.44349
11171,20339.8,-1.09167,3.01692,2.12609,1.49733,7.55431,4.34325,-0.0218521,0.488355
11210,20378.9,-0.457742,3.14988,2.12648,1.50157,7.55561,4.35636,0.009541082,0.581234
11249,20418.1,0.000378419,3.26314,2.1284,1.50357,7.56201,4.36258,-0.004124165,0.581234
11288,20457.3,-0.913044,3.0794,2.1292,1.50772,7.56466,4.37511,-0.03533268,0.491509
11327,20496.5,-1.67977,2.92028,2.13006,1.513,7.56751,4.39081,-0.0209903,0.460547
11367,20534.7,-0.393691,3.18651,2.13143,1.51799,7.57209,4.40424,-0.0142192,0.50541
11406,20573.9,-0.0116428,3.2573,2.13245,1.52323,7.5755,4.4197,-0.000307798,0.550273
11445,20613.1,-2.02256,2.83072,2.13256,1.53424,7.57585,4.45191,-0.0201901,0.367667
11484,20652.3,0.003571548,3.2573,2.13493,1.53858,7.58373,4.46419,-0.00473976,0.519313
11523,20691.5,0.250006,3.28038,2.13502,1.5488,7.584,4.4938,0.0384104,0.474449
11562,20730.7,-0.30635,3.1505,2.13525,1.55542,7.58476,4.51377,0.005970812,0.44349
11601,20769.9,-0.569689,3.12403,2.13553,1.56146,7.58569,4.53235,0.0190821,0.488355
11640,20809.1,-1.50584,2.93998,2.13556,1.56667,7.58579,4.54852,-0.0336707,0.457397
11679,20848.3,-1.84018,2.84518,2.13574,1.57866,7.58639,4.58327,0.0198208,0.395488
11718,20887.5,-0.241736,3.18158,2.13671,1.58531,7.58961,4.60305,-0.0123726,0.426441
11757,20926.7,-0.936147,3.03847,2.13671,1.59304,7.58962,4.62658,-0.00818682,0.426441
11796,20965.9,-0.146693,3.19789,2.13686,1.59889,7.59008,4.64441,0.00750976,0.471311
11835,21005.1,0.485358,3.34101,2.13786,1.60236,7.59342,4.65518,0.002154446,0.471311
11874,21044.3,-1.60332,2.92921,2.13941,1.60551,7.5986,4.66463,-0.0402571,0.37845
11913,21083.5,0.140313,3.27669,2.14066,1.61037,7.60274,4.67915,-0.008063746,0.226808
11952,21122.7,2.75712e-06,3.24775,2.14205,1.61674,7.60736,4.69657,0.000123072,0.33358
11992,21161.9,0.522549,3.34963,2.14271,1.62197,7.60957,4.71196,0.00874085,0.454272
12031,21201.1,-0.191021,3.18928,2.14311,1.63031,7.61089,4.73621,-0.0100335,0.392369
12070,21240.2,0.486861,3.33516,2.14461,1.63734,7.6158,4.75635,0.0100335,0.271677
12109,21279.5,-0.968266,3.02831,2.14556,1.64473,7.61897,4.77736,-0.0118802,0.37845
12148,21318.7,-0.863269,3.04862,2.14587,1.65143,7.62,4.79744,-0.0148963,0.350619
12187,21357.9,-0.955682,3.03631,2.14605,1.65825,7.62061,4.81823,-0.0104028,0.322804
12226,21397.1,-0.191961,3.18866,2.14618,1.66357,7.62102,4.8346,-0.0068326,0.146544
12265,21436.3,-0.314051,3.15327,2.14636,1.67262,7.62162,4.86118,0.0104644,0.104898
12304,21475.5,-0.335088,3.15327,2.1473,1.68187,7.62471,4.88804,0.0177895,0.228787
12343,21514.7,-0.0894048,3.19543,2.14734,1.68924,7.62485,4.91032,0.0278229,0.431778
12382,21553.9,-0.279678,3.1625,2.14747,1.69628,7.62526,4.93161,-0.01224947,0.448909
12421,21593.1,-0.842607,3.05386,2.14772,1.70091,7.62612,4.94595,-0.0292387,0.421215
12460,21632.3,-1.66437,2.90705,2.14964,1.70251,7.6325,4.95072,-0.0333629,0.562345
12499,21671.4,0.0255478,3.24745,2.15084,1.70694,7.63644,4.964,-0.008556128,0.624341
12538,21710.6,0.586036,3.33732,2.15159,1.71552,7.63891,4.98785,0.0224061,0.731163
12578,21749.8,-0.49249,3.10956,2.15268,1.72035,7.64255,5.00194,0.0204978,0.762165
12617,21789,-1.65723,2.88089,2.15369,1.7264,7.64589,5.0194,0.02400651,0.793167
12656,21828.2,0.198916,3.24899,2.15414,1.73611,7.64738,5.04732,-0.009602594,0.793167
12695,21867.4,-2.8755,2.65867,2.15617,1.73805,7.65408,5.05279,-0.0516448,0.548516
12734,21906.6,-0.129225,3.1902,2.1563,1.74729,7.65448,5.07966,0.016743,0.607174
12773,21945.8,-0.118894,3.17974,2.15663,1.75522,7.65558,5.10341,-0.00492444,0.359239
12812,21985,-0.557856,3.10156,2.1568,1.76059,7.65611,5.11986,0.003508663,0.493746
12851,22024.2,-0.89257,3.02215,2.1568,1.76779,7.65611,5.1417,-0.0129881,0.431778
12890,22063.4,0.0368176,3.19082,2.15718,1.77984,7.65738,5.1759,0.0528143,0.445634
12929,22102.6,-1.39652,2.9172,2.15796,1.78563,7.65994,5.19335,-0.0164968,0.321714
12968,22141.8,-0.870031,3.01138,2.15796,1.79329,7.65995,5.21643,-0.0150195,0.197813
13007,22181,-0.816687,3.04555,2.15835,1.79757,7.66123,5.22949,-0.0252376,0.43915
13046,22220.2,0.000190588,3.2336,2.16027,1.79979,7.66759,5.23629,-0.006894159,0.408178
13085,22259.4,-0.488358,3.13234,2.16107,1.80372,7.67022,5.24802,-0.0196361,0.377206
13124,22298.6,-1.88,2.84672,2.16193,1.80873,7.67304,5.26278,-0.0536146,0.739242
13164,22337.8,-0.393691,3.15758,2.1633,1.8142,7.67756,5.27734,-0.0136652,0.739242
13203,22376.9,-0.0114549,3.22498,2.16432,1.81942,7.68095,5.29253,-0.000369358,0.722161
13242,22416.1,-2.02256,2.78147,2.16443,1.83042,7.68129,5.32422,-0.0212366,0.660227
13281,22455.3,0.003571548,3.22406,2.16681,1.83477,7.68908,5.3363,-0.002092886,0.76702
13320,22494.5,0.250006,3.23821,2.16689,1.84497,7.68934,5.36538,0.0393337,0.536371
13359,22533.7,-1.51899,2.88027,2.16712,1.85159,7.69011,5.38505,-0.0389029,0.550273
13398,22572.9,-0.569877,3.0794,2.1674,1.85761,7.691019,5.40327,0.01951294,0.519313
13437,22612.1,-1.50565,2.89166,2.16743,1.86283,7.69111,5.41926,-0.0339785,0.519313
13476,22651.3,-1.84018,2.78363,2.16761,1.87478,7.69171,5.45327,-0.006955719,0.488355
13515,22690.5,-0.241736,3.13203,2.1686,1.88143,7.69491,5.47265,-0.01218791,0.609046
13554,22729.7,-0.826078,3.00369,2.1686,1.88916,7.69492,5.49578,-0.004124165,0.595139
13593,22768.9,-0.146881,3.14527,2.16874,1.89501,7.69537,5.51327,0.007694387,0.715833
13632,22808.2,0.485546,3.29577,2.16975,1.89847,7.69869,5.52382,0.002277565,0.56418
13671,22847.4,-1.60314,2.87504,2.1713,1.90161,7.70378,5.53309,-0.0416112,0.670964
13710,22886.5,0.140313,3.22867,2.17255,1.90649,7.70786,5.54739,-0.007940626,0.701925
13749,22925.8,0.000190588,3.19913,2.17393,1.91287,7.7124,5.56442,0.000246191,0.746792
13789,22964.91,0.522737,3.301,2.1746,1.91809,7.71459,5.57947,0.009541035,0.626099
13828,23004.1,-0.191021,3.12865,2.175,1.92643,7.71588,5.60317,-0.0102181,0.626099
13867,23043.3,0.487049,3.28376,2.1765,1.93346,7.72073,5.62279,0.0105259,0.595139
13906,23082.5,-0.968454,2.95783,2.17744,1.94085,7.72382,5.64329,-0.0126188,0.595139
13945,23121.8,-1.41906,2.87965,2.17775,1.94754,7.72483,5.66288,-0.0348402,0.640005
13984,23160.9,-0.95587,2.96614,2.17793,1.95433,7.72541,5.68312,-0.0104644,0.670964
14023,23200.1,-0.191961,3.12003,2.17806,1.95965,7.72582,5.69911,-0.00677104,0.578089
14062,23239.3,-0.314051,3.07663,2.17824,1.96871,7.7264,5.72499,0.0114492,0.622961
14101,23278.5,-0.335088,3.07971,2.17918,1.97797,7.72943,5.75104,0.0169277,0.66783
14140,23317.7,-0.0894048,3.11295,2.17922,1.98536,7.72956,5.77278,0.0280076,0.636876
14179,23356.9,-0.279678,3.07971,2.17935,1.99241,7.72996,5.7935,-0.01126461,0.819486
14218,23396.1,-0.842795,2.96737,2.17961,1.99703,7.73083,5.8074,-0.0297927,0.636876
14257,23435.3,-1.66437,2.82579,2.18153,1.99864,7.73709,5.81208,-0.0354558,0.482115
14296,23474.5,0.0255478,3.1742,2.18273,2.00307,7.74093,5.82498,-0.008125305,0.588892
14335,23513.6,0.586036,3.24745,2.18347,2.01166,7.74333,5.84801,0.0247452,0.816372
14375,23552.8,-0.49249,3.00615,2.18457,2.01647,7.7469,5.86158,0.0201901,0.740545
14414,23592,-1.65742,2.76362,2.18558,2.0225,7.75016,5.87838,0.0240681,0.7607
14453,23631.2,0.198916,3.14342,2.18603,2.03223,7.75159,5.90516,-0.00757127,0.870643
14492,23670.5,-2.8755,2.55095,2.18806,2.03417,7.75811,5.91045,-0.0558305,0.8909
14531,23709.7,-0.129225,3.08463,2.18819,2.04342,7.7585,5.93623,0.017297,0.938965
14570,23748.9,-0.118706,3.05663,2.18852,2.05133,7.75956,5.95895,-0.005601549,0.925086
14609,23788,-0.558043,2.98122,2.18869,2.05671,7.76008,5.97479,0.00332398,0.77992
14648,23827.2,-0.892383,2.8735,2.18869,2.06391,7.76008,5.99564,-0.0136037,0.600558
14687,23866.4,0.0366298,3.00738,2.18907,2.07601,7.76127,6.02786,0.0532452,0.806991
14726,23905.6,-1.39633,2.74208,2.18985,2.0818,7.76373,6.04436,-0.0180972,1.04122
14765,23944.8,-0.870031,2.82025,2.18985,2.08944,7.76373,6.06603,-0.0159428,1.06184
14804,23984,-0.816875,2.87842,2.19025,2.09373,7.76496,6.07837,-0.0265303,0.948089
14843,24023.2,2.75712e-06,3.11326,2.19216,2.09594,7.77105,6.08475,-0.007078839,0.90677
14882,24062.5,-0.488358,2.99507,2.19296,2.0999,7.77356,6.09598,-0.0201285,1.12401
14921,24101.644,-1.88,2.67837,2.19382,2.10493,7.77623,6.11001,-0.0589698,1.1138
14961,24140.8,-0.393691,3.01015,2.19518,2.11035,7.7805,6.12321,-0.0137268,1.31382
15000,24180,-0.0114549,3.07171,2.19621,2.11556,7.78371,6.13738,0.000123119,1.37951
15039,24219.2,-2.02219,2.49709,2.19631,2.12659,7.78402,6.16647,-0.0281923,1.56585
15078,24258.4,0.003571548,3.04185,2.19869,2.13093,7.79126,6.17716,-0.004924393,1.55213
15117,24297.6,0.249818,2.93259,2.19877,2.14113,7.79149,6.20331,0.0437657,1.22137
15156,24336.8,-0.306538,2.74854,2.19898,2.14779,7.79213,6.22095,0.002462244,1.05967
15195,24376,-0.569877,2.72146,2.19926,2.15381,7.79295,6.23703,0.021175,1.22872
15234,24415.175,-1.50546,2.49124,2.19929,2.15903,7.79303,6.25106,-0.0377949,1.2461
15274,24840.9,1.09975,3.45858,2.23293,2.16395,7.9068,6.26314,0.00049243,1.1034
15313,25036,1.09994,3.51706,2.29254,2.16395,8.11531,6.26314,6.15597e-05,1.02167
15352,25231.2,1.09975,3.5423,2.35215,2.16395,8.32569,6.26314,6.1512e-05,1.1014
15391,25426.2,1.09975,3.56169,2.41174,2.16395,8.53738,6.26314,0.0,1.04701
15430,25621.3,1.09957,3.57338,2.47132,2.16395,8.75001,6.26314,-6.15597e-05,0.975123
15469,25816.4,1.09957,3.58046,2.53092,2.16395,8.96319,6.26314,6.15597e-05,1.0685
15508,26011.4,1.09975,3.58538,2.59051,2.16395,9.1767,6.26314,0.0,1.28641
15547,26206.5,1.09975,3.59123,2.65011,2.16395,9.39055,6.26314,0.0,1.31754
15586,26401.6,1.09975,3.5977,2.7097,2.16395,9.60476,6.26314,0.0,1.44209
15625,26595.8,1.07308,3.60016,2.76853,2.16395,9.81653,6.26314,-6.1512e-05,1.42853
15664,26790.9,1.03157,3.60016,2.82558,2.16395,10.0219,6.26314,-6.1512e-05,1.53954
15703,26986,0.982171,3.60016,2.8802,2.16395,10.2186,6.26314,0.0,1.68174
15742,27181,0.920187,3.60016,2.93182,2.16395,10.4044,6.26314,0.0,1.77519
15781,27376.1,0.833973,3.60016,2.97949,2.16395,10.5761,6.26314,0.0,1.73051
15820,27571.1,0.700988,3.60047,3.02133,2.16395,10.7267,6.26314,6.1512e-05,1.53415
15859,27766.2,0.523488,3.60047,3.0546,2.16395,10.8465,6.26314,6.1512e-05,1.55178
15898,27961.2,0.359699,3.60016,3.07834,2.16395,10.9319,6.26314,0.0,1.27959
15937,28156.3,0.245498,3.60047,3.09451,2.16395,10.9902,6.26314,0.0,0.993903
15976,28351.4,0.17431,3.60047,3.10573,2.16395,11.0305,6.26314,0.0,0.966878
16015,28546.4,0.130358,3.60016,3.1139,2.16395,11.0599,6.26314,0.0,0.922206
16054,28741.5,0.102559,3.60047,3.12015,2.16395,11.0825,6.26314,6.1512e-05,0.757042
16093,28936.6,0.0837754,3.60016,3.12516,2.16395,11.1005,6.26314,-6.1512e-05,0.681212
16132,29131.6,0.0702516,3.60016,3.12931,2.16395,11.1154,6.26314,0.0,0.712375
16171,29326.7,0.0606722,3.60016,3.13285,2.16395,11.1282,6.26314,0.0,0.298414
16234,29600.1,2.75712e-06,3.53614,3.13518,2.16395,11.1366,6.26314,-0.000184679,-0.0162505
16273,29639.2,-1.97842,3.01661,3.13588,2.17043,11.1391,6.28343,-0.0382257,0.0325097
16312,29678.3,-1.14483,3.12618,3.1367,2.17833,11.142,6.30809,0.006093979,0.0325097
16351,29717.4,0.000190588,3.37117,3.13949,2.1835,11.1522,6.32446,-0.001723576,0.157041
16390,29756.6,-1.01316,3.18158,3.13949,2.18364,11.1522,6.3249,-0.0389029,0.192224
16429,29795.7,-2.81108,2.72454,3.14089,2.20364,11.1571,6.37988,0.0310238,0.196294
16468,29834.8,-1.10069,3.03108,3.14089,2.22431,11.1571,6.43831,0.0283769,0.258584
16507,29874,-2.54342,2.74731,3.14099,2.23907,11.1574,6.48036,0.00732508,0.213909
16546,29913.1,1.51974,3.57954,3.14555,2.24266,11.1732,6.49128,0.0518294,0.213909
16585,29952.3,-1.56388,2.97106,3.14733,2.25017,11.1794,6.51268,0.0151426,0.245057
16624,29991.4,2.75712e-06,3.30623,3.15064,2.25626,11.1911,6.53115,-6.15597e-05,0.32088
16663,30030.5,2.75712e-06,3.30377,3.15273,2.26396,11.1986,6.55273,0.000184679,0.307353
16702,30069.7,-0.609133,3.16035,3.15274,2.27636,11.1986,6.58777,-0.0133575,0.307353
16741,30108.8,-0.686895,3.16866,3.15591,2.27942,11.2098,6.59743,-0.0131728,0.142191
16780,30148,2.75712e-06,3.30377,3.15724,2.28547,11.2145,6.61605,0.000123119,0.431959
16819,30187.1,-0.86233,3.13018,3.1573,2.28982,11.2146,6.62942,-0.0108953,0.0840095
16858,30226.3,2.75712e-06,3.30654,3.15892,2.29387,11.2204,6.64189,0.000123119,0.008193836
16897,30265.4,0.759404,3.44627,3.15998,2.3007,11.2241,6.66262,-0.00621705,-0.0366054
16936,30304.5,0.0830241,3.30315,3.16052,2.30536,11.226,6.67687,0.0655562,0.132806
16975,30343.7,0.135805,3.30746,3.1617,2.31344,11.23,6.70114,0.0155119,0.54307
17014,30382.8,-0.423932,3.19605,3.16343,2.32122,11.236,6.72427,-0.0115724,0.377914
17053,30421.9,-0.297146,3.22529,3.16378,2.32739,11.2372,6.74303,0.00677104,0.422578
17092,30461,0.126225,3.3127,3.16551,2.33286,11.2431,6.75994,-0.0170508,0.712375
17131,30500.2,0.019725,3.28838,3.16571,2.33794,11.2437,6.77587,0.004247332,1.06036
17170,30539.3,0.126413,3.30469,3.16624,2.34249,11.2455,6.79013,0.0349018,1.09153
17209,30578.5,0.126413,3.30562,3.16794,2.34993,11.2514,6.81207,0.004616642,1.06036
17248,30617.5,-0.000185074,3.297,3.16972,2.35284,11.2575,6.82118,0.0,1.09153
17287,30656.7,-1.27105,3.02769,3.16972,2.35798,11.2575,6.83629,0.0118801,1.09153
17326,30695.8,-0.331519,3.2336,3.17151,2.36036,11.2637,6.84359,-0.0111415,1.12269
17365,30734.9,0.3702178,3.35271,3.17165,2.36843,11.2641,6.8683,0.012311,1.12269
17404,30774,1.29604,3.53306,3.17378,2.3731,11.2715,6.88163,0.0472744,1.12269
17443,30813.2,-0.609509,3.15973,3.17431,2.37792,11.2734,6.89638,-0.02431426,1.15385
17482,30852.3,-0.345419,3.22529,3.17515,2.37928,11.2762,6.90076,-0.005232191,1.07802
17521,30891.5,-2.74252,2.74085,3.17522,2.38789,11.2764,6.92679,-0.0770055,0.957526
17560,30930.6,-0.472205,3.2022,3.17755,2.3894,11.2847,6.93109,-0.0180972,0.912863
17600,30969.1,0.000190588,3.29084,3.17844,2.39404,11.2877,6.94485,6.15597e-05,0.912863
17639,31008.2,-0.584715,3.17019,3.17914,2.39889,11.2901,6.95925,-0.0164968,0.837031
17678,31047.3,-1.12511,3.04985,3.17996,2.40686,11.2929,6.9832,-0.0280691,0.881697
17717,31086.5,0.881682,3.45612,3.18259,2.4136,11.3023,7.00381,-0.0326242,0.975196
17756,31125.6,0.000190588,3.29023,3.18274,2.4136,11.3028,7.00381,6.15597e-05,0.944029
17795,31164.7,-2.90387,2.66883,3.18415,2.42982,11.3077,7.04804,-0.01803565,0.899364
17834,31203.9,-2.03646,2.80333,3.18415,2.45251,11.3077,7.10996,-0.002031326,0.930533
17873,31243,-2.6163,2.69714,3.18425,2.46612,11.308,7.14874,0.0445044,1.03754
17912,31282.2,-0.321564,3.19851,3.18837,2.4727,11.3221,7.16731,-0.0429655,0.917042
17951,31321.3,-2.0945,2.8418,3.19061,2.47771,11.3298,7.18149,0.0209903,0.917042
17990,31360.5,0.000190588,3.26684,3.19391,2.48638,11.3414,7.20685,-0.0392722,0.917042
18029,31399.6,2.75712e-06,3.26284,3.196,2.49408,11.3487,7.22809,0.000184679,0.979384
18068,31438.7,-0.433887,3.15296,3.19601,2.50597,11.3488,7.261,0.008863973,1.02404
18107,31477.9,-0.725401,3.12526,3.19917,2.50877,11.3598,7.26974,-0.0281923,0.872386
18146,31517,2.75712e-06,3.26407,3.20051,2.5156,11.3645,7.2905,-0.000738668,0.537906
18185,31556.2,-0.296958,3.20405,3.20057,2.51923,11.3647,7.30146,-0.0135421,0.70724
18224,31595.3,0.000190588,3.26622,3.20219,2.52401,11.3704,7.31605,6.15597e-05,0.510933
18263,31634.5,0.126225,3.27484,3.20224,2.53084,11.3705,7.33647,0.0270843,0.680278
18302,31673.6,-1.10557,3.03631,3.20378,2.53442,11.3758,7.34732,-0.0364406,0.43511
18341,31712.7,-0.433699,3.15388,3.20494,2.54342,11.3798,7.37394,0.0193899,0.573279
18380,31751.9,-0.282495,3.1822,3.20669,2.5511,11.3858,7.39644,0.00732508,0.528628
18419,31791.1,-0.467697,3.1545,3.20704,2.55718,11.3869,7.41467,-0.0264071,0.573279
18458,31830.2,0.135992,3.27453,3.20845,2.56297,11.3917,7.43239,0.0177894,1.1934
18497,31869.3,-0.404398,3.17112,3.20896,2.56777,11.3934,7.4472,-0.016743,1.33158
18536,31908.4,0.126413,3.27638,3.20947,2.57179,11.3951,7.45971,0.0198208,1.40742
18575,31947.6,0.0781405,3.25853,3.21113,2.58004,11.4008,7.48383,-0.0100951,1.36276
18614,31986.7,2.75712e-06,3.26284,3.21298,2.58295,11.4071,7.49283,-0.0316393,1.48325
18653,32025.8,-1.60332,2.93044,3.21298,2.58639,11.4071,7.50274,0.0395799,1.40742
18692,32064.9,2.75712e-06,3.26345,3.21477,2.59036,11.4132,7.51459,0.000123119,1.28693
18731,32104,0.019725,3.24868,3.21477,2.59848,11.4132,7.53918,0.0107721,1.48325
18770,32143.1,0.121154,3.24775,3.21631,2.60322,11.4184,7.55254,0.104828,1.36276
18809,32182.2,-0.267844,3.18805,3.21756,2.60778,11.4228,7.56631,0.0480746,1.36276
18848,32221.4,-0.0488333,3.25268,3.21842,2.60908,11.4256,7.57042,0.000184679,1.28693
18887,32260.5,-0.53062,3.13634,3.21848,2.61688,11.4259,7.5938,0.007140398,1.28693
18926,32299.6,0.000190588,3.26222,3.2208,2.61946,11.434,7.60119,0.000123119,1.28693
18965,32338.1,0.000190588,3.26037,3.2217,2.62414,11.437,7.61494,0.000123119,1.16643
19005,32377.2,0.691409,3.39426,3.22222,2.62868,11.4388,7.62818,0.0241296,1.24227
19044,32416.3,-1.15478,3.01384,3.2232,2.63629,11.4421,7.6508,-0.0509061,1.24227
19083,32455.4,1.88508,3.61493,3.22417,2.6437,11.4455,7.67324,0.08389964,1.01477
19122,32494.5,0.000190588,3.26284,3.22599,2.6437,11.452,7.67324,6.15597e-05,1.13526
19161,32533.6,-3.84866,2.466,3.22741,2.65606,11.4569,7.70714,-0.0369331,0.86311
19200,32572.7,-2.21659,2.73992,3.22741,2.67994,11.4569,7.77076,-0.0330551,0.742629
19239,32611.8,-3.84884,2.4343,3.22745,2.69381,11.457,7.81016,-0.0933792,0.590977
19278,32651,1.36892,3.49551,3.23083,2.70279,11.4685,7.83469,-0.002154446,0.515153
19317,32690.1,-2.71904,2.71253,3.23386,2.70492,11.4788,7.84087,-0.0444428,0.666802
19356,32729.3,1.1839,3.47489,3.23644,2.71648,11.4879,7.87389,-0.0273305,0.546326
19395,32768.4,2.75712e-06,3.24191,3.23925,2.7242,11.4977,7.89494,0.0,0.590977
19434,32807.5,-0.0678043,3.19605,3.23925,2.73553,11.4977,7.92581,0.0275151,0.684507
19473,32846.6,0.000190588,3.24775,3.24242,2.73864,11.5087,7.9354,-6.15597e-05,0.622151
19512,32885.7,1.28157,3.49305,3.24336,2.74573,11.5119,7.95683,0.0292387,0.470499
19551,32924.9,-0.311797,3.17912,3.24381,2.74923,11.5135,7.96729,-0.013419,0.470499
19590,32964,0.000190588,3.24806,3.24545,2.75416,11.5192,7.98224,0.000123072,0.501678
19629,33003.1,-0.632988,3.10587,3.24545,2.76055,11.5192,8.00115,-0.002154446,0.532854
19668,33042.2,-0.009764459,3.23144,3.24704,2.76358,11.5247,8.01035,0.0376102,0.488206
19707,33081.4,-1.03795,3.00984,3.2482,2.77259,11.5286,8.03672,0.0203132,0.457031
19746,33120.5,-0.794523,3.05324,3.24995,2.78048,11.5346,8.05967,0.0556459,0.56403
19785,33159.6,-0.345419,3.15481,3.25012,2.78707,11.5351,8.0793,-0.0187128,0.595209
19824,33198.8,-0.604438,3.10033,3.25153,2.79281,11.5399,8.09675,0.0268996,0.867339
19863,33237.9,0.019725,3.23329,3.25218,2.79771,11.542,8.11174,0.01803565,1.39817
19902,33277,-0.569877,3.12034,3.25269,2.80147,11.5437,8.12338,-0.0198823,1.46053
19941,33316.2,-0.433699,3.12711,3.25427,2.81005,11.5491,8.14834,0.0154503,1.53637
19980,33355.3,1.27162,3.48474,3.25542,2.8131,11.5529,8.1577,0.0449352,1.42935
20019,33394.3,-1.8954,2.87011,3.25624,2.81401,11.5558,8.16043,-0.0610627,1.474
20058,33433.5,0.000190588,3.24529,3.25802,2.82051,11.5618,8.17929,0.000307751,1.42935
20097,33472.6,-0.39463,3.14188,3.25802,2.82834,11.5618,8.20276,0.0142808,1.42935
20136,33511.6,-2.55262,2.72607,3.25956,2.83059,11.567,8.20937,-0.0624784,1.46053
20175,33550.7,-1.57346,2.91197,3.26081,2.83665,11.5713,8.22677,-0.0137268,1.49172
20214,33589.8,2.75712e-06,3.24437,3.26167,2.83913,11.5742,8.23436,0.000123072,1.18838
20253,33629,-0.823073,3.05693,3.26173,2.84621,11.5744,8.25536,0.00326242,1.11255
20292,33668.1,0.000190588,3.24314,3.26405,2.84965,11.5825,8.26532,0.000184679,0.853872
20331,33707.3,0.000190588,3.24129,3.26495,2.85433,11.5855,8.27897,0.000123072,0.885052
20371,33746.2,0.170366,3.25945,3.26503,2.85886,11.5857,8.29206,0.026161,0.853872
20410,33785.4,0.0240451,3.22036,3.26641,2.86603,11.5904,8.31313,0.0393337,0.885052
20449,33824.5,-0.803351,3.04278,3.26663,2.87371,11.5911,8.3362,0.0154503,0.916236
20488,33863.6,0.000190588,3.24345,3.26926,2.87389,11.6005,8.33677,0.000123119,0.960882
20527,33902.8,-2.57704,2.70668,3.27067,2.88252,11.6053,8.36097,-0.0776826,0.795763
20566,33941.9,-1.19329,2.90243,3.27067,2.90857,11.6053,8.42864,0.0411804,0.719933
20605,33981,-0.837912,2.98953,3.27071,2.92228,11.6054,8.46723,-0.0185281,0.719933
20644,34020.2,0.85238,3.35578,3.2728,2.93299,11.6123,8.49607,0.000307751,0.719933
20683,34059.3,-1.0233,3.02677,3.27711,2.93324,11.6271,8.49684,-0.039703,0.751116
20722,34098.5,1.60277,3.51275,3.27806,2.94668,11.6303,8.53477,0.0418575,0.813488
20761,34137.6,2.75712e-06,3.21575,3.28252,2.95437,11.6458,8.55548,-0.0562614,0.706475
20800,34176.8,-0.447787,3.07263,3.28252,2.96516,11.6458,8.58421,0.0376102,0.844675
20839,34215.9,2.75712e-06,3.21882,3.28569,2.9688,11.6567,8.59529,-0.001169586,0.813488
20878,34255,-0.369837,3.1228,3.28574,2.97588,11.6569,8.61644,-0.0114492,0.661835
20917,34294.2,-0.111945,3.18558,3.28706,2.97911,11.6614,8.62592,0.005232191,0.737661
20956,34333.3,2.75712e-06,3.21421,3.28872,2.9843,11.6671,8.6415,-6.15597e-05,0.768847
20995,34372.4,-0.886936,3.00707,3.28872,2.99009,11.6671,8.65831,0.0317625,0.737661
21034,34411.5,-1.53909,2.89997,3.2903,2.99264,11.6725,8.66604,-0.036256,0.737661
21073,34450.7,-1.92395,2.79071,3.29147,3.00121,11.6764,8.69088,0.003570223,0.69302
21112,34489.8,-2.43617,2.68576,3.29322,3.00896,11.6823,8.71315,-0.0377949,0.768847
21151,34529,0.135805,3.20282,3.29335,3.01704,11.6828,8.73659,0.000984859,0.768847
21190,34568.1,-0.789451,3.01384,3.29481,3.02208,11.6876,8.7517,-0.008433056,0.88932
21229,34607.3,-0.419048,3.09664,3.29544,3.02762,11.6897,8.76836,0.009294843,1.71004
21268,34646.4,-0.0726879,3.17543,3.29597,3.03129,11.6914,8.77957,0.012311,1.75469
21307,34685.5,-1.13994,2.92305,3.29754,3.03945,11.6967,8.80283,0.0331782,1.78588
21346,34724.7,0.073069,3.20313,3.29844,3.0432,11.6997,8.81416,-0.00116954,1.6342
21385,34763.9,2.75712e-06,3.21174,3.29951,3.0432,11.7033,8.81416,6.15597e-05,1.74123
21424,34803,-0.219384,3.15758,3.30129,3.05058,11.7093,8.83528,-0.006709528,1.81707
21463,34842.1,-0.745123,3.01938,3.30129,3.05792,11.7093,8.85685,-0.004431963,1.71004
21502,34881.2,-1.028,2.99938,3.30283,3.05902,11.7144,8.86021,-0.0410573,1.74123
21541,34920.3,-0.794335,3.02831,3.30409,3.06551,11.7187,8.87839,-0.0182819,1.51371
21580,34959.4,-0.000185074,3.19728,3.30495,3.06921,11.7215,8.88936,0.000184679,1.55836
21619,34998.6,-0.336403,3.10156,3.30501,3.07564,11.7217,8.90802,0.000123119,1.17919
21658,35037.7,2.75712e-06,3.19512,3.30733,3.07973,11.7297,8.91973,0.000246239,1.17919
21697,35076.8,2.75712e-06,3.19205,3.30822,3.08441,11.7326,8.93308,-0.0281922,1.13454
21737,35115.2,-1.02311,2.94429,3.30823,3.08855,11.7326,8.94477,-0.008186865,1.21037
21776,35154.3,-0.360257,3.08894,3.30969,3.09531,11.7375,8.96417,0.00670948,1.02752
21815,35193.4,-1.18822,2.91074,3.30991,3.10242,11.7382,8.98516,-0.0569385,1.25931
21854,35232.4,2.75712e-06,3.19205,3.31252,3.10397,11.7473,8.98966,0.000246239,1.05871
21893,35271.6,0.102371,3.19851,3.31391,3.11121,11.752,9.00934,-0.0166814,1.05871
21932,35310.7,-3.80977,2.26349,3.31392,3.13608,11.752,9.0718,-0.0611242,0.98288
21971,35349.8,-0.101802,3.03939,3.31396,3.15119,11.7521,9.1121,0.0144039,0.951693
22010,35388.9,0.774242,3.23698,3.31508,3.16311,11.7557,9.14294,0.0342247,0.938238
22049,35428,2.75712e-06,3.16681,3.32037,3.16319,11.7733,9.14321,6.1512e-05,1.00062
22088,35467.2,0.501136,3.17297,3.3204,3.17677,11.7734,9.1802,0.0518294,0.969428
22127,35506.4,1.74439,3.45119,3.32444,3.18445,11.7871,9.20002,0.0693111,0.875861
22166,35545.5,-2.39184,2.53525,3.32578,3.19365,11.7916,9.22311,0.0549688,0.969428
22205,35584.7,1.0327,3.34994,3.32865,3.19885,11.8013,9.23795,-0.00757127,1.00062
22244,35623.8,0.0732569,3.0914,3.32897,3.20572,11.8024,9.2577,0.0285616,1.00062
22283,35663,-0.609133,2.97322,3.33029,3.20897,11.8068,9.26692,-0.0136037,0.938238
22322,35702.1,0.000190588,3.12495,3.33198,3.21435,11.8124,9.28248,-0.04758215,0.955981
22361,35741.2,-1.49044,2.75439,3.33198,3.21866,11.8124,9.2945,0.0194514,0.893598
22400,35780.4,-0.374908,3.04678,3.33356,3.2215,11.8176,9.30261,-0.0166814,0.911344
22439,35819.5,-1.82177,2.68729,3.33472,3.22905,11.8214,9.32388,0.000984907,1.0942
22478,35858.7,-1.25696,2.77193,3.33648,3.23714,11.8271,9.34581,0.012865,0.987174
22517,35897.8,-0.389747,2.89104,3.33654,3.24697,11.8273,9.37234,-0.004493522,1.0942
22556,35937,-0.384675,2.9212,3.33806,3.25132,11.8321,9.38467,0.0470281,1.23242
22595,35976.1,-1.03269,2.79225,3.33871,3.25708,11.8341,9.40093,-0.0525065,2.00424
22634,36015.2,-0.0775715,2.98891,3.33923,3.26117,11.8357,9.41266,0.01914363,2.23175
22673,36054.4,-1.39333,2.66113,3.34081,3.26736,11.8408,9.4294,0.001908207,2.15591
22712,36093.5,0.360451,3.03693,3.34157,3.2733,11.8432,9.44538,0.0397646,2.11127
22751,36132.7,2.75712e-06,3.05632,3.34278,3.2733,11.847,9.44538,0.000369358,2.21831
22790,36171.8,2.75712e-06,3.02092,3.34457,3.28055,11.8527,9.46441,-0.000246191,2.29415
22829,36211,-0.862142,2.71715,3.34457,3.28715,11.8527,9.48216,-0.0267765,2.2764
22868,36250.1,2.75712e-06,3.00553,3.3461,3.2889,11.8574,9.487,0.00043087,2.04888
22907,36289.2,0.0484632,2.92705,3.34734,3.29534,11.8613,9.50325,0.0614936,2.11127
22946,36328.4,2.75712e-06,2.94921,3.3482,3.29931,11.8639,9.51392,0.000615549,2.09783
22985,36367.5,-0.336591,2.76116,3.34827,3.30536,11.8641,9.52948,0.00541687,1.95959
23024,36406.7,2.75712e-06,2.9052,3.35058,3.30981,11.8714,9.54067,0.000738668,2.00424
23063,36445.8,0.282876,2.91413,3.35113,3.31451,11.8729,9.55239,0.001354218,2.06663
23103,36484.2,-0.614393,2.63651,3.35148,3.31713,11.874,9.5589,0.0335475,2.03543
23142,36523.3,-0.57476,2.58727,3.35295,3.325,11.8783,9.5779,0.00080018,2.09783
23181,36562.5,0.13618,2.64944,3.35308,3.33201,11.8787,9.59506,0.0405648,1.99079
23220,36601.6,2.75712e-06,2.76793,3.35578,3.33406,11.8868,9.59989,0.000677109,2.19143
23246,36626.1,-0.00131206,2.54233,3.35578,3.33659,11.8868,9.60563,0.0,1.83911